*FILE_COMMENT ""
*FILE_MD5 ""
*FILE_MEMO ""
*FILE_OPERATOR "Administrator"
*FILE_PACKAGE_NAME ""
*FILE_PART_ID "GeneralMeasurement"
*FILE_SAMPLE ""
*FILE_SYSTEM_NAME "MiniFlex"
*FILE_TYPE "RAS_RAW"
*FILE_USERGROUP "Administrators"
*FILE_VERSION "1"
*HW_ATTACHMENT_NAME_INTERNAL "ASC8"
*HW_COUNTER_ID-0 "CUT0025"
*HW_COUNTER_ID-2 "CMC0020"
*HW_COUNTER_MONOCHRO_ID "CMC0020"
*HW_COUNTER_MONOCHRO_NAME "None"
*HW_COUNTER_MONOCHRO_NAME_INTERNAL "None"
*HW_COUNTER_NAME_INTERNAL "DteX100"
*HW_COUNTER_NAME-0 "DteX100"
*HW_COUNTER_NAME-1 "None"
*HW_COUNTER_NAME-2 "None"
*HW_COUNTER_PIXEL_SIZE "0.1"
*HW_COUNTER_SELECT_NAME "DteX100"
*HW_GONIOMETER_ID "GON0021"
*HW_GONIOMETER_NAME "Standard"
*HW_GONIOMETER_NAME_INTERNAL "Standard"
*HW_GONIOMETER_RADIUS-0 "90.0"
*HW_GONIOMETER_RADIUS-1 "114.0"
*HW_GONIOMETER_RADIUS-2 "91.5"
*HW_GONIOMETER_RADIUS-3 "150.0"
*HW_GONIOMETER_RADIUS-4 "103.4"
*HW_GONIOMETER_RADIUS-5 "150.0"
*HW_GONIOMETER_RADIUS-6 "46.6"
*HW_GONIOMETER_RADIUS-7 "150.0"
*HW_I_CBO_ID "CBO0020"
*HW_I_CBO_NAME "No_unit"
*HW_I_CBO_NAME_INTERNAL "No_unit"
*HW_I_MONOCHRO_NAME_INTERNAL "Manual"
*HW_I_OPT_ID-1 "CBO0020"
*HW_I_PRIMARY_NAME_INTERNAL "No_unit"
*HW_I_SLIT_NAME_INTERNAL "Manual"
*HW_R_ATTENUATER_AUTOMODE "0"
*HW_R_ATTENUATER_ID "ATN0020"
*HW_R_ATTENUATER_NAME "No_unit"
*HW_R_ATTENUATOR_NAME_INTERNAL "No_unit"
*HW_R_OPT_ID-1 "RCR0023"
*HW_R_OPT_ID-4 "ATN0020"
*HW_R_ROD_ID "RCR0023"
*HW_R_ROD_NAME "No_unit"
*HW_R_ROD_NAME_INTERNAL "No_unit"
*HW_R_RPS_NAME_INTERNAL "Manual"
*HW_R_RS_NAME_INTERNAL "Manual"
*HW_R_SS_NAME_INTERNAL "Manual"
*HW_SAMPLE_HOLDER_NAME_INTERNAL "None"
*HW_SAMPLE_NAME "None"
*HW_SAMPLE_NAME_INTERNAL "None"
*HW_SAMPLE_PLATE_NAME "None"
*HW_SAMPLE_PLATE_NAME_INTERNAL "None"
*HW_SAMPLE_SPACER_NAME "None"
*HW_SAMPLE_SPACER_NAME_INTERNAL "None"
*HW_USERINFO_CATALOG_NO ""
*HW_USERINFO_INSTRUMENT_ID ""
*HW_USERINFO_INSTRUMENT_NAME ""
*HW_USERINFO_INSTRUMENT_NO ""
*HW_USERINFO_MODEL ""
*HW_USERINFO_ORDER_NO ""
*HW_USERINFO_SERIAL_NO ""
*HW_USERINFO_VERIFY_INSTRUMENT_ID "00-07-fe-03-00-df"
*HW_VER_RCD_COUNTER_UNIT "N/A"
*HW_VER_RCD_CPU "10.0.1"
*HW_VER_RCD_FPGA "3.0.1"
*HW_VER_RCD_GONIO_UNIT "0.0.0"
*HW_VER_RCD_INCIDENT_UNIT "0.0.0"
*HW_VER_RCD_RECEIVING_UNIT "0.0.0"
*HW_VER_RCD_TYPE "RINCII"
*HW_VER_XGC_CPU "10.0.1"
*HW_VER_XGC_CW "5.0.0"
*HW_VER_XGC_HV "5.0.0"
*HW_VER_XGC_RS1 "5.0.0"
*HW_VER_XGC_RS2 "N/A"
*HW_VER_XGC_RT "N/A"
*HW_VER_XGC_TYPE "RINCII"
*HW_XG_CURRENT_UNIT "mA"
*HW_XG_FOCUS "0.4mm x 8mm"
*HW_XG_FOCUS_TYPE "Fine"
*HW_XG_TARGET_ATOMIC_NUMBER "29"
*HW_XG_TARGET_NAME "Cu"
*HW_XG_TYPE "Hermetic"
*HW_XG_VOLTAGE_UNIT "kV"
*HW_XG_WAVE_LENGTH_ALPHA1 "1.540593"
*HW_XG_WAVE_LENGTH_ALPHA2 "1.544414"
*HW_XG_WAVE_LENGTH_BETA "1.392246"
*HW_XG_WAVE_LENGTH_UNIT "Angstrom"
*MEAS_COND_AXIS_NAME_INTERNAL-0 "TwoThetaTheta"
*MEAS_COND_AXIS_NAME_INTERNAL-1 "IncidentSollerSlit"
*MEAS_COND_AXIS_NAME_INTERNAL-10 "Changer"
*MEAS_COND_AXIS_NAME_INTERNAL-11 "ReceivingSlitBox1"
*MEAS_COND_AXIS_NAME_INTERNAL-12 "ReceivingSlitBox1"
*MEAS_COND_AXIS_NAME_INTERNAL-13 "ReceivingSlitBox1"
*MEAS_COND_AXIS_NAME_INTERNAL-14 "Filter"
*MEAS_COND_AXIS_NAME_INTERNAL-15 "ReceivingSollerSlit"
*MEAS_COND_AXIS_NAME_INTERNAL-16 "ReceivingSlitBox2"
*MEAS_COND_AXIS_NAME_INTERNAL-17 "ReceivingSlitBox2"
*MEAS_COND_AXIS_NAME_INTERNAL-18 "ReceivingSlitBox2"
*MEAS_COND_AXIS_NAME_INTERNAL-19 "PHA"
*MEAS_COND_AXIS_NAME_INTERNAL-2 "IncidentSlitBox"
*MEAS_COND_AXIS_NAME_INTERNAL-20 "RS3"
*MEAS_COND_AXIS_NAME_INTERNAL-21 "Target_TargetTime"
*MEAS_COND_AXIS_NAME_INTERNAL-22 "Target_XrayOnTime"
*MEAS_COND_AXIS_NAME_INTERNAL-23 "Target_TMPTime"
*MEAS_COND_AXIS_NAME_INTERNAL-24 "Target_RPTime"
*MEAS_COND_AXIS_NAME_INTERNAL-25 "Target_FilamentTime"
*MEAS_COND_AXIS_NAME_INTERNAL-26 "Target_IG"
*MEAS_COND_AXIS_NAME_INTERNAL-27 "Target_GP"
*MEAS_COND_AXIS_NAME_INTERNAL-28 "Target_FC"
*MEAS_COND_AXIS_NAME_INTERNAL-29 "HVPS_Bias"
*MEAS_COND_AXIS_NAME_INTERNAL-3 "IncidentSlitBox"
*MEAS_COND_AXIS_NAME_INTERNAL-30 "HVPS_HVPSTime"
*MEAS_COND_AXIS_NAME_INTERNAL-31 "HVPS_Type1Time"
*MEAS_COND_AXIS_NAME_INTERNAL-32 "HVPS_Type2Time"
*MEAS_COND_AXIS_NAME_INTERNAL-33 "HVPS_Type3Time"
*MEAS_COND_AXIS_NAME_INTERNAL-34 "CW_IERTime"
*MEAS_COND_AXIS_NAME_INTERNAL-35 "CW_ECTime"
*MEAS_COND_AXIS_NAME_INTERNAL-36 "CW_Flow1"
*MEAS_COND_AXIS_NAME_INTERNAL-37 "CW_Temperature1"
*MEAS_COND_AXIS_NAME_INTERNAL-38 "CW_Pressure1"
*MEAS_COND_AXIS_NAME_INTERNAL-39 "CW_PressureIn"
*MEAS_COND_AXIS_NAME_INTERNAL-4 "IncidentSlitBox"
*MEAS_COND_AXIS_NAME_INTERNAL-40 "CW_PressureOut"
*MEAS_COND_AXIS_NAME_INTERNAL-41 "CW_Flow2"
*MEAS_COND_AXIS_NAME_INTERNAL-42 "CW_Temperature2"
*MEAS_COND_AXIS_NAME_INTERNAL-43 "CW_Pressure2"
*MEAS_COND_AXIS_NAME_INTERNAL-44 "RE_EnclosureTemp"
*MEAS_COND_AXIS_NAME_INTERNAL-45 "RE_EnclosureHummidity"
*MEAS_COND_AXIS_NAME_INTERNAL-46 "RE_CabinetTemp"
*MEAS_COND_AXIS_NAME_INTERNAL-47 "RE_RPTemp"
*MEAS_COND_AXIS_NAME_INTERNAL-48 "RE_ShutterAXrayOnTime"
*MEAS_COND_AXIS_NAME_INTERNAL-49 "RE_ShutterATimes"
*MEAS_COND_AXIS_NAME_INTERNAL-5 "IncidentAxdSlit"
*MEAS_COND_AXIS_NAME_INTERNAL-50 "RE_ShutterAOpenCloseTime"
*MEAS_COND_AXIS_NAME_INTERNAL-51 "RE_ShutterACloseOpenTime"
*MEAS_COND_AXIS_NAME_INTERNAL-52 "RE_ShutterBXrayOnTime"
*MEAS_COND_AXIS_NAME_INTERNAL-53 "RE_ShutterBTimes"
*MEAS_COND_AXIS_NAME_INTERNAL-54 "RE_ShutterBOpenCloseTime"
*MEAS_COND_AXIS_NAME_INTERNAL-55 "RE_ShutterBCloseOpenTime"
*MEAS_COND_AXIS_NAME_INTERNAL-56 "RE_XrayWarningRamp"
*MEAS_COND_AXIS_NAME_INTERNAL-57 "RE_ShutterAInstallation"
*MEAS_COND_AXIS_NAME_INTERNAL-58 "RE_ShutterARamp"
*MEAS_COND_AXIS_NAME_INTERNAL-59 "RE_ShutterBInstallation"
*MEAS_COND_AXIS_NAME_INTERNAL-6 "IncidentAxdSlit"
*MEAS_COND_AXIS_NAME_INTERNAL-60 "RE_ShutterBRamp"
*MEAS_COND_AXIS_NAME_INTERNAL-61 "RE_ExtShutterCLS"
*MEAS_COND_AXIS_NAME_INTERNAL-62 "RE_ExtXrayOFF"
*MEAS_COND_AXIS_NAME_INTERNAL-63 "RE_ExtSafetyCircuit"
*MEAS_COND_AXIS_NAME_INTERNAL-64 "Version_CPU"
*MEAS_COND_AXIS_NAME_INTERNAL-65 "Version_RS1"
*MEAS_COND_AXIS_NAME_INTERNAL-66 "Version_RS2"
*MEAS_COND_AXIS_NAME_INTERNAL-67 "Version_HV"
*MEAS_COND_AXIS_NAME_INTERNAL-68 "Version_CW"
*MEAS_COND_AXIS_NAME_INTERNAL-69 "Version_RT"
*MEAS_COND_AXIS_NAME_INTERNAL-7 "IncidentAxdSlit"
*MEAS_COND_AXIS_NAME_INTERNAL-70 "IncidentPrimary"
*MEAS_COND_AXIS_NAME_INTERNAL-71 "IncidentMonochromator"
*MEAS_COND_AXIS_NAME_INTERNAL-72 "ReceivingOptics"
*MEAS_COND_AXIS_NAME_INTERNAL-73 "CounterMonochromatorKind"
*MEAS_COND_AXIS_NAME_INTERNAL-8 "Filter"
*MEAS_COND_AXIS_NAME_INTERNAL-9 "Beta"
*MEAS_COND_AXIS_NAME-0 "TwoThetaTheta"
*MEAS_COND_AXIS_NAME-1 "IncidentSollerSlit"
*MEAS_COND_AXIS_NAME-10 "Changer"
*MEAS_COND_AXIS_NAME-11 "ReceivingSlitBox1"
*MEAS_COND_AXIS_NAME-12 "ReceivingSlitBox1-_Axis"
*MEAS_COND_AXIS_NAME-13 "SlitSS"
*MEAS_COND_AXIS_NAME-14 "Filter"
*MEAS_COND_AXIS_NAME-15 "ReceivingSollerSlit"
*MEAS_COND_AXIS_NAME-16 "ReceivingSlitBox2"
*MEAS_COND_AXIS_NAME-17 "ReceivingSlitBox2-_Axis"
*MEAS_COND_AXIS_NAME-18 "SlitRS"
*MEAS_COND_AXIS_NAME-19 "PHA"
*MEAS_COND_AXIS_NAME-2 "IncidentSlitBox"
*MEAS_COND_AXIS_NAME-20 "RS3"
*MEAS_COND_AXIS_NAME-21 "Target_TargetTime"
*MEAS_COND_AXIS_NAME-22 "Target_XrayOnTime"
*MEAS_COND_AXIS_NAME-23 "Target_TMPTime"
*MEAS_COND_AXIS_NAME-24 "Target_RPTime"
*MEAS_COND_AXIS_NAME-25 "Target_FilamentTime"
*MEAS_COND_AXIS_NAME-26 "Target_IG"
*MEAS_COND_AXIS_NAME-27 "Target_GP"
*MEAS_COND_AXIS_NAME-28 "Target_FC"
*MEAS_COND_AXIS_NAME-29 "HVPS_Bias"
*MEAS_COND_AXIS_NAME-3 "IncidentSlitBox-_Axis"
*MEAS_COND_AXIS_NAME-30 "HVPS_HVPSTime"
*MEAS_COND_AXIS_NAME-31 "HVPS_Type1Time"
*MEAS_COND_AXIS_NAME-32 "HVPS_Type2Time"
*MEAS_COND_AXIS_NAME-33 "HVPS_Type3Time"
*MEAS_COND_AXIS_NAME-34 "CW_IERTime"
*MEAS_COND_AXIS_NAME-35 "CW_ECTime"
*MEAS_COND_AXIS_NAME-36 "CW_Flow1"
*MEAS_COND_AXIS_NAME-37 "CW_Temperature1"
*MEAS_COND_AXIS_NAME-38 "CW_Pressure1"
*MEAS_COND_AXIS_NAME-39 "CW_PressureIn"
*MEAS_COND_AXIS_NAME-4 "SlitDS"
*MEAS_COND_AXIS_NAME-40 "CW_PressureOut"
*MEAS_COND_AXIS_NAME-41 "CW_Flow2"
*MEAS_COND_AXIS_NAME-42 "CW_Temperature2"
*MEAS_COND_AXIS_NAME-43 "CW_Pressure2"
*MEAS_COND_AXIS_NAME-44 "RE_EnclosureTemp"
*MEAS_COND_AXIS_NAME-45 "RE_EnclosureHummidity"
*MEAS_COND_AXIS_NAME-46 "RE_CabinetTemp"
*MEAS_COND_AXIS_NAME-47 "RE_RPTemp"
*MEAS_COND_AXIS_NAME-48 "RE_ShutterAXrayOnTime"
*MEAS_COND_AXIS_NAME-49 "RE_ShutterATimes"
*MEAS_COND_AXIS_NAME-5 "IncidentAxdSlit"
*MEAS_COND_AXIS_NAME-50 "RE_ShutterAOpenCloseTime"
*MEAS_COND_AXIS_NAME-51 "RE_ShutterACloseOpenTime"
*MEAS_COND_AXIS_NAME-52 "RE_ShutterBXrayOnTime"
*MEAS_COND_AXIS_NAME-53 "RE_ShutterBTimes"
*MEAS_COND_AXIS_NAME-54 "RE_ShutterBOpenCloseTime"
*MEAS_COND_AXIS_NAME-55 "RE_ShutterBCloseOpenTime"
*MEAS_COND_AXIS_NAME-56 "RE_XrayWarningRamp"
*MEAS_COND_AXIS_NAME-57 "RE_ShutterAInstallation"
*MEAS_COND_AXIS_NAME-58 "RE_ShutterARamp"
*MEAS_COND_AXIS_NAME-59 "RE_ShutterBInstallation"
*MEAS_COND_AXIS_NAME-6 "LLS"
*MEAS_COND_AXIS_NAME-60 "RE_ShutterBRamp"
*MEAS_COND_AXIS_NAME-61 "RE_ExtShutterCLS"
*MEAS_COND_AXIS_NAME-62 "RE_ExtXrayOFF"
*MEAS_COND_AXIS_NAME-63 "RE_ExtSafetyCircuit"
*MEAS_COND_AXIS_NAME-64 "Version_CPU"
*MEAS_COND_AXIS_NAME-65 "Version_RS1"
*MEAS_COND_AXIS_NAME-66 "Version_RS2"
*MEAS_COND_AXIS_NAME-67 "Version_HV"
*MEAS_COND_AXIS_NAME-68 "Version_CW"
*MEAS_COND_AXIS_NAME-69 "Version_RT"
*MEAS_COND_AXIS_NAME-7 "DHLSlit"
*MEAS_COND_AXIS_NAME-70 "IncidentPrimary"
*MEAS_COND_AXIS_NAME-71 "IncidentMonochromator"
*MEAS_COND_AXIS_NAME-72 "ReceivingOptics"
*MEAS_COND_AXIS_NAME-73 "CounterMonochromatorKind"
*MEAS_COND_AXIS_NAME-8 "Filter"
*MEAS_COND_AXIS_NAME-9 "Beta"
*MEAS_COND_AXIS_OFFSET-0 "0"
*MEAS_COND_AXIS_OFFSET-1 "0"
*MEAS_COND_AXIS_OFFSET-10 "0"
*MEAS_COND_AXIS_OFFSET-11 "0"
*MEAS_COND_AXIS_OFFSET-12 "0"
*MEAS_COND_AXIS_OFFSET-13 "0"
*MEAS_COND_AXIS_OFFSET-14 "0"
*MEAS_COND_AXIS_OFFSET-15 "0"
*MEAS_COND_AXIS_OFFSET-16 "0"
*MEAS_COND_AXIS_OFFSET-17 "0"
*MEAS_COND_AXIS_OFFSET-18 "0"
*MEAS_COND_AXIS_OFFSET-19 "0"
*MEAS_COND_AXIS_OFFSET-2 "0"
*MEAS_COND_AXIS_OFFSET-20 "0"
*MEAS_COND_AXIS_OFFSET-21 "0"
*MEAS_COND_AXIS_OFFSET-22 "0"
*MEAS_COND_AXIS_OFFSET-23 "0"
*MEAS_COND_AXIS_OFFSET-24 "0"
*MEAS_COND_AXIS_OFFSET-25 "0"
*MEAS_COND_AXIS_OFFSET-26 "0"
*MEAS_COND_AXIS_OFFSET-27 "0"
*MEAS_COND_AXIS_OFFSET-28 "0"
*MEAS_COND_AXIS_OFFSET-29 "0"
*MEAS_COND_AXIS_OFFSET-3 "0"
*MEAS_COND_AXIS_OFFSET-30 "0"
*MEAS_COND_AXIS_OFFSET-31 "0"
*MEAS_COND_AXIS_OFFSET-32 "0"
*MEAS_COND_AXIS_OFFSET-33 "0"
*MEAS_COND_AXIS_OFFSET-34 "0"
*MEAS_COND_AXIS_OFFSET-35 "0"
*MEAS_COND_AXIS_OFFSET-36 "0"
*MEAS_COND_AXIS_OFFSET-37 "0"
*MEAS_COND_AXIS_OFFSET-38 "0"
*MEAS_COND_AXIS_OFFSET-39 "0"
*MEAS_COND_AXIS_OFFSET-4 "0"
*MEAS_COND_AXIS_OFFSET-40 "0"
*MEAS_COND_AXIS_OFFSET-41 "0"
*MEAS_COND_AXIS_OFFSET-42 "0"
*MEAS_COND_AXIS_OFFSET-43 "0"
*MEAS_COND_AXIS_OFFSET-44 "0"
*MEAS_COND_AXIS_OFFSET-45 "0"
*MEAS_COND_AXIS_OFFSET-46 "0"
*MEAS_COND_AXIS_OFFSET-47 "0"
*MEAS_COND_AXIS_OFFSET-48 "0"
*MEAS_COND_AXIS_OFFSET-49 "0"
*MEAS_COND_AXIS_OFFSET-5 "0"
*MEAS_COND_AXIS_OFFSET-50 "0"
*MEAS_COND_AXIS_OFFSET-51 "0"
*MEAS_COND_AXIS_OFFSET-52 "0"
*MEAS_COND_AXIS_OFFSET-53 "0"
*MEAS_COND_AXIS_OFFSET-54 "0"
*MEAS_COND_AXIS_OFFSET-55 "0"
*MEAS_COND_AXIS_OFFSET-56 "0"
*MEAS_COND_AXIS_OFFSET-57 "0"
*MEAS_COND_AXIS_OFFSET-58 "0"
*MEAS_COND_AXIS_OFFSET-59 "0"
*MEAS_COND_AXIS_OFFSET-6 "0"
*MEAS_COND_AXIS_OFFSET-60 "0"
*MEAS_COND_AXIS_OFFSET-61 "0"
*MEAS_COND_AXIS_OFFSET-62 "0"
*MEAS_COND_AXIS_OFFSET-63 "0"
*MEAS_COND_AXIS_OFFSET-64 "0"
*MEAS_COND_AXIS_OFFSET-65 "0"
*MEAS_COND_AXIS_OFFSET-66 "0"
*MEAS_COND_AXIS_OFFSET-67 "0"
*MEAS_COND_AXIS_OFFSET-68 "0"
*MEAS_COND_AXIS_OFFSET-69 "0"
*MEAS_COND_AXIS_OFFSET-7 "0"
*MEAS_COND_AXIS_OFFSET-70 "0"
*MEAS_COND_AXIS_OFFSET-71 "0"
*MEAS_COND_AXIS_OFFSET-72 "0"
*MEAS_COND_AXIS_OFFSET-73 "0"
*MEAS_COND_AXIS_OFFSET-8 "0"
*MEAS_COND_AXIS_OFFSET-9 "0"
*MEAS_COND_AXIS_POSITION-0 "12.0000"
*MEAS_COND_AXIS_POSITION-1 "Soller_slit_2.5deg"
*MEAS_COND_AXIS_POSITION-10 "2"
*MEAS_COND_AXIS_POSITION-11 "8.0mm"
*MEAS_COND_AXIS_POSITION-12 "8.0mm"
*MEAS_COND_AXIS_POSITION-13 "8.0mm"
*MEAS_COND_AXIS_POSITION-14 "K_beta_x1.5"
*MEAS_COND_AXIS_POSITION-15 "Soller_slit_2.5deg"
*MEAS_COND_AXIS_POSITION-16 "Open"
*MEAS_COND_AXIS_POSITION-17 "Open"
*MEAS_COND_AXIS_POSITION-18 "Open"
*MEAS_COND_AXIS_POSITION-19 "43"
*MEAS_COND_AXIS_POSITION-2 "1.25deg"
*MEAS_COND_AXIS_POSITION-20 "Open"
*MEAS_COND_AXIS_POSITION-3 "1.25deg"
*MEAS_COND_AXIS_POSITION-4 "1.25deg"
*MEAS_COND_AXIS_POSITION-5 "10mm"
*MEAS_COND_AXIS_POSITION-6 "10mm"
*MEAS_COND_AXIS_POSITION-7 "10mm"
*MEAS_COND_AXIS_POSITION-70 "No_unit"
*MEAS_COND_AXIS_POSITION-71 "Manual"
*MEAS_COND_AXIS_POSITION-72 "No_unit"
*MEAS_COND_AXIS_POSITION-73 "None"
*MEAS_COND_AXIS_POSITION-8 "None"
*MEAS_COND_AXIS_RESOLUTION-0 "0.0025"
*MEAS_COND_AXIS_RESOLUTION-1 ""
*MEAS_COND_AXIS_RESOLUTION-10 "1"
*MEAS_COND_AXIS_RESOLUTION-11 ""
*MEAS_COND_AXIS_RESOLUTION-12 ""
*MEAS_COND_AXIS_RESOLUTION-13 ""
*MEAS_COND_AXIS_RESOLUTION-14 ""
*MEAS_COND_AXIS_RESOLUTION-15 ""
*MEAS_COND_AXIS_RESOLUTION-16 ""
*MEAS_COND_AXIS_RESOLUTION-17 ""
*MEAS_COND_AXIS_RESOLUTION-18 ""
*MEAS_COND_AXIS_RESOLUTION-19 "1"
*MEAS_COND_AXIS_RESOLUTION-2 ""
*MEAS_COND_AXIS_RESOLUTION-20 "0.1"
*MEAS_COND_AXIS_RESOLUTION-21 "0.01"
*MEAS_COND_AXIS_RESOLUTION-22 "0.010000"
*MEAS_COND_AXIS_RESOLUTION-23 "0.01"
*MEAS_COND_AXIS_RESOLUTION-24 "0.01"
*MEAS_COND_AXIS_RESOLUTION-25 "0.01"
*MEAS_COND_AXIS_RESOLUTION-26 "1"
*MEAS_COND_AXIS_RESOLUTION-27 "1"
*MEAS_COND_AXIS_RESOLUTION-28 "0.01"
*MEAS_COND_AXIS_RESOLUTION-29 "1"
*MEAS_COND_AXIS_RESOLUTION-3 ""
*MEAS_COND_AXIS_RESOLUTION-30 "0.01"
*MEAS_COND_AXIS_RESOLUTION-31 "0.01"
*MEAS_COND_AXIS_RESOLUTION-32 "0.01"
*MEAS_COND_AXIS_RESOLUTION-33 "0.01"
*MEAS_COND_AXIS_RESOLUTION-34 "0.010000"
*MEAS_COND_AXIS_RESOLUTION-35 "1"
*MEAS_COND_AXIS_RESOLUTION-36 "0.100000"
*MEAS_COND_AXIS_RESOLUTION-37 "1.000000"
*MEAS_COND_AXIS_RESOLUTION-38 "0.010000"
*MEAS_COND_AXIS_RESOLUTION-39 "0.01"
*MEAS_COND_AXIS_RESOLUTION-4 ""
*MEAS_COND_AXIS_RESOLUTION-40 "0.01"
*MEAS_COND_AXIS_RESOLUTION-41 "0.1"
*MEAS_COND_AXIS_RESOLUTION-42 "1"
*MEAS_COND_AXIS_RESOLUTION-43 "0.01"
*MEAS_COND_AXIS_RESOLUTION-44 "1.000000"
*MEAS_COND_AXIS_RESOLUTION-45 "1"
*MEAS_COND_AXIS_RESOLUTION-46 "1.000000"
*MEAS_COND_AXIS_RESOLUTION-47 "1"
*MEAS_COND_AXIS_RESOLUTION-48 "0.01"
*MEAS_COND_AXIS_RESOLUTION-49 "1"
*MEAS_COND_AXIS_RESOLUTION-5 ""
*MEAS_COND_AXIS_RESOLUTION-50 "1"
*MEAS_COND_AXIS_RESOLUTION-51 "1"
*MEAS_COND_AXIS_RESOLUTION-52 "0.01"
*MEAS_COND_AXIS_RESOLUTION-53 "1.000000"
*MEAS_COND_AXIS_RESOLUTION-54 "1.000000"
*MEAS_COND_AXIS_RESOLUTION-55 "1.000000"
*MEAS_COND_AXIS_RESOLUTION-56 "-"
*MEAS_COND_AXIS_RESOLUTION-57 "-"
*MEAS_COND_AXIS_RESOLUTION-58 "-"
*MEAS_COND_AXIS_RESOLUTION-59 "1.000000"
*MEAS_COND_AXIS_RESOLUTION-6 ""
*MEAS_COND_AXIS_RESOLUTION-60 "-"
*MEAS_COND_AXIS_RESOLUTION-61 "-"
*MEAS_COND_AXIS_RESOLUTION-62 "-"
*MEAS_COND_AXIS_RESOLUTION-63 "1.000000"
*MEAS_COND_AXIS_RESOLUTION-64 "1.000000"
*MEAS_COND_AXIS_RESOLUTION-65 "1.000000"
*MEAS_COND_AXIS_RESOLUTION-66 "1.000000"
*MEAS_COND_AXIS_RESOLUTION-67 "1.000000"
*MEAS_COND_AXIS_RESOLUTION-68 "1.000000"
*MEAS_COND_AXIS_RESOLUTION-69 "1.000000"
*MEAS_COND_AXIS_RESOLUTION-7 ""
*MEAS_COND_AXIS_RESOLUTION-8 ""
*MEAS_COND_AXIS_RESOLUTION-9 "0.9"
*MEAS_COND_AXIS_SPEED_RESOLUTION-9 "0.1"
*MEAS_COND_AXIS_SPEED_UNIT-9 "rpm"
*MEAS_COND_AXIS_SPEED-9 "80"
*MEAS_COND_AXIS_STATE-0 "Scan"
*MEAS_COND_AXIS_STATE-1 "Fixed"
*MEAS_COND_AXIS_STATE-10 "Fixed"
*MEAS_COND_AXIS_STATE-11 "Fixed"
*MEAS_COND_AXIS_STATE-12 "Fixed"
*MEAS_COND_AXIS_STATE-13 "Fixed"
*MEAS_COND_AXIS_STATE-14 "Fixed"
*MEAS_COND_AXIS_STATE-15 "Fixed"
*MEAS_COND_AXIS_STATE-16 "Fixed"
*MEAS_COND_AXIS_STATE-17 "Fixed"
*MEAS_COND_AXIS_STATE-18 "Fixed"
*MEAS_COND_AXIS_STATE-19 "Fixed"
*MEAS_COND_AXIS_STATE-2 "Fixed"
*MEAS_COND_AXIS_STATE-20 "Fixed"
*MEAS_COND_AXIS_STATE-21 "Fixed"
*MEAS_COND_AXIS_STATE-22 "Fixed"
*MEAS_COND_AXIS_STATE-23 "Fixed"
*MEAS_COND_AXIS_STATE-24 "Fixed"
*MEAS_COND_AXIS_STATE-25 "Fixed"
*MEAS_COND_AXIS_STATE-26 "Fixed"
*MEAS_COND_AXIS_STATE-27 "Fixed"
*MEAS_COND_AXIS_STATE-28 "Fixed"
*MEAS_COND_AXIS_STATE-29 "Fixed"
*MEAS_COND_AXIS_STATE-3 "Fixed"
*MEAS_COND_AXIS_STATE-30 "Fixed"
*MEAS_COND_AXIS_STATE-31 "Fixed"
*MEAS_COND_AXIS_STATE-32 "Fixed"
*MEAS_COND_AXIS_STATE-33 "Fixed"
*MEAS_COND_AXIS_STATE-34 "Fixed"
*MEAS_COND_AXIS_STATE-35 "Fixed"
*MEAS_COND_AXIS_STATE-36 "Fixed"
*MEAS_COND_AXIS_STATE-37 "Fixed"
*MEAS_COND_AXIS_STATE-38 "Fixed"
*MEAS_COND_AXIS_STATE-39 "Fixed"
*MEAS_COND_AXIS_STATE-4 "Fixed"
*MEAS_COND_AXIS_STATE-40 "Fixed"
*MEAS_COND_AXIS_STATE-41 "Fixed"
*MEAS_COND_AXIS_STATE-42 "Fixed"
*MEAS_COND_AXIS_STATE-43 "Fixed"
*MEAS_COND_AXIS_STATE-44 "Fixed"
*MEAS_COND_AXIS_STATE-45 "Fixed"
*MEAS_COND_AXIS_STATE-46 "Fixed"
*MEAS_COND_AXIS_STATE-47 "Fixed"
*MEAS_COND_AXIS_STATE-48 "Fixed"
*MEAS_COND_AXIS_STATE-49 "Fixed"
*MEAS_COND_AXIS_STATE-5 "Fixed"
*MEAS_COND_AXIS_STATE-50 "Fixed"
*MEAS_COND_AXIS_STATE-51 "Fixed"
*MEAS_COND_AXIS_STATE-52 "Fixed"
*MEAS_COND_AXIS_STATE-53 "Fixed"
*MEAS_COND_AXIS_STATE-54 "Fixed"
*MEAS_COND_AXIS_STATE-55 "Fixed"
*MEAS_COND_AXIS_STATE-56 "Fixed"
*MEAS_COND_AXIS_STATE-57 "Fixed"
*MEAS_COND_AXIS_STATE-58 "Fixed"
*MEAS_COND_AXIS_STATE-59 "Fixed"
*MEAS_COND_AXIS_STATE-6 "Fixed"
*MEAS_COND_AXIS_STATE-60 "Fixed"
*MEAS_COND_AXIS_STATE-61 "Fixed"
*MEAS_COND_AXIS_STATE-62 "Fixed"
*MEAS_COND_AXIS_STATE-63 "Fixed"
*MEAS_COND_AXIS_STATE-64 "Fixed"
*MEAS_COND_AXIS_STATE-65 "Fixed"
*MEAS_COND_AXIS_STATE-66 "Fixed"
*MEAS_COND_AXIS_STATE-67 "Fixed"
*MEAS_COND_AXIS_STATE-68 "Fixed"
*MEAS_COND_AXIS_STATE-69 "Fixed"
*MEAS_COND_AXIS_STATE-7 "Fixed"
*MEAS_COND_AXIS_STATE-8 "Fixed"
*MEAS_COND_AXIS_STATE-9 "Rotation"
*MEAS_COND_AXIS_UNIT-0 "deg"
*MEAS_COND_AXIS_UNIT-1 ""
*MEAS_COND_AXIS_UNIT-10 ""
*MEAS_COND_AXIS_UNIT-11 ""
*MEAS_COND_AXIS_UNIT-12 ""
*MEAS_COND_AXIS_UNIT-13 ""
*MEAS_COND_AXIS_UNIT-14 ""
*MEAS_COND_AXIS_UNIT-15 ""
*MEAS_COND_AXIS_UNIT-16 ""
*MEAS_COND_AXIS_UNIT-17 ""
*MEAS_COND_AXIS_UNIT-18 ""
*MEAS_COND_AXIS_UNIT-19 "div"
*MEAS_COND_AXIS_UNIT-2 ""
*MEAS_COND_AXIS_UNIT-20 ""
*MEAS_COND_AXIS_UNIT-21 "H"
*MEAS_COND_AXIS_UNIT-22 "H"
*MEAS_COND_AXIS_UNIT-23 "H"
*MEAS_COND_AXIS_UNIT-24 "H"
*MEAS_COND_AXIS_UNIT-25 "H"
*MEAS_COND_AXIS_UNIT-26 "mV"
*MEAS_COND_AXIS_UNIT-27 "V"
*MEAS_COND_AXIS_UNIT-28 "V"
*MEAS_COND_AXIS_UNIT-29 "V"
*MEAS_COND_AXIS_UNIT-3 ""
*MEAS_COND_AXIS_UNIT-30 "H"
*MEAS_COND_AXIS_UNIT-31 "H"
*MEAS_COND_AXIS_UNIT-32 "H"
*MEAS_COND_AXIS_UNIT-33 "H"
*MEAS_COND_AXIS_UNIT-34 "H"
*MEAS_COND_AXIS_UNIT-35 "uS/m"
*MEAS_COND_AXIS_UNIT-36 "L/min"
*MEAS_COND_AXIS_UNIT-37 "degree"
*MEAS_COND_AXIS_UNIT-38 "MPa"
*MEAS_COND_AXIS_UNIT-39 "MPa"
*MEAS_COND_AXIS_UNIT-4 ""
*MEAS_COND_AXIS_UNIT-40 "MPa"
*MEAS_COND_AXIS_UNIT-41 "L/min"
*MEAS_COND_AXIS_UNIT-42 "C"
*MEAS_COND_AXIS_UNIT-43 "MPa"
*MEAS_COND_AXIS_UNIT-44 "degree"
*MEAS_COND_AXIS_UNIT-45 "percent"
*MEAS_COND_AXIS_UNIT-46 "degree"
*MEAS_COND_AXIS_UNIT-47 "C"
*MEAS_COND_AXIS_UNIT-48 "H"
*MEAS_COND_AXIS_UNIT-49 "time"
*MEAS_COND_AXIS_UNIT-5 ""
*MEAS_COND_AXIS_UNIT-50 "msec"
*MEAS_COND_AXIS_UNIT-51 "msec"
*MEAS_COND_AXIS_UNIT-52 "H"
*MEAS_COND_AXIS_UNIT-53 "times"
*MEAS_COND_AXIS_UNIT-54 "msec"
*MEAS_COND_AXIS_UNIT-55 "msec"
*MEAS_COND_AXIS_UNIT-56 "-"
*MEAS_COND_AXIS_UNIT-57 "-"
*MEAS_COND_AXIS_UNIT-58 "-"
*MEAS_COND_AXIS_UNIT-59 ""
*MEAS_COND_AXIS_UNIT-6 ""
*MEAS_COND_AXIS_UNIT-60 "-"
*MEAS_COND_AXIS_UNIT-61 "-"
*MEAS_COND_AXIS_UNIT-62 "-"
*MEAS_COND_AXIS_UNIT-63 ""
*MEAS_COND_AXIS_UNIT-64 ""
*MEAS_COND_AXIS_UNIT-65 ""
*MEAS_COND_AXIS_UNIT-66 ""
*MEAS_COND_AXIS_UNIT-67 ""
*MEAS_COND_AXIS_UNIT-68 ""
*MEAS_COND_AXIS_UNIT-69 ""
*MEAS_COND_AXIS_UNIT-7 ""
*MEAS_COND_AXIS_UNIT-70 ""
*MEAS_COND_AXIS_UNIT-71 ""
*MEAS_COND_AXIS_UNIT-72 ""
*MEAS_COND_AXIS_UNIT-73 ""
*MEAS_COND_AXIS_UNIT-8 ""
*MEAS_COND_AXIS_UNIT-9 "deg"
*MEAS_COND_COUNTER_CENTER_X "0.5"
*MEAS_COND_COUNTER_CENTER_Y "67.34"
*MEAS_COND_COUNTER_COUNTMODE "Differential"
*MEAS_COND_COUNTER_DEADTIMECORRECTION "Enabled"
*MEAS_COND_COUNTER_DISTANCE "150"
*MEAS_COND_COUNTER_ENERGYMODE "XRFReduction"
*MEAS_COND_COUNTER_PHA_UNIT "div"
*MEAS_COND_COUNTER_PHABASE "43"
*MEAS_COND_COUNTER_PHAWINDOW "21"
*MEAS_COND_COUNTER_PITCH_X "20"
*MEAS_COND_COUNTER_PITCH_Y "0.1"
*MEAS_COND_COUNTER_PITCHUNIT "mm"
*MEAS_COND_COUNTER_VALIDWIDTH_X "1"
*MEAS_COND_COUNTER_VALIDWIDTH_Y "200"
*MEAS_COND_XG_CURRENT "15"
*MEAS_COND_XG_VOLTAGE "40"
*MEAS_COND_XG_WAVE_TYPE "Ka"
*MEAS_DATA_COUNT "3751"
*MEAS_SCAN_AXIS_X "TwoThetaTheta"
*MEAS_SCAN_AXIS_X_INTERNAL "TwoThetaTheta"
*MEAS_SCAN_END_TIME "06/03/2024 12:57:12"
*MEAS_SCAN_MODE "CONTINUOUS"
*MEAS_SCAN_MODE_INTERNAL "TDI_1D"
*MEAS_SCAN_RESOLUTION_X "0.0025"
*MEAS_SCAN_SPEED "10.0000"
*MEAS_SCAN_SPEED_UNIT "deg/min"
*MEAS_SCAN_START "5.0000"
*MEAS_SCAN_START_TIME "06/03/2024 12:49:02"
*MEAS_SCAN_STEP "0.0200"
*MEAS_SCAN_STOP "80.0000"
*MEAS_SCAN_UNEQUALY_SPACED "False"
*MEAS_SCAN_UNIT_X "deg"
*MEAS_SCAN_UNIT_Y "cps"
#Intensity_unit=cps
#Attenuator_coefficient=1.0000
5.0000 2350.0000
5.0200 2350.0000
5.0400 2350.0000
5.0600 2346.4850
5.0800 2329.8175
5.1000 2334.2600
5.1200 2421.1250
5.1400 2443.6325
5.1600 2289.7325
5.1800 2544.0875
5.2000 2685.3950
5.2200 2555.8600
5.2400 2435.8300
5.2600 2559.3475
5.2800 2433.0925
5.3000 2509.0750
5.3200 2395.1225
5.3400 2230.6325
5.3600 2360.8250
5.3800 2340.2450
5.4000 2442.3700
5.4200 2461.4125
5.4400 2682.5375
5.4600 2436.8850
5.4800 2446.4475
5.5000 2438.6650
5.5200 2467.2250
5.5400 2492.8850
5.5600 2473.7850
5.5800 2489.3175
5.6000 2417.9400
5.6200 2324.9425
5.6400 2414.8850
5.6600 2415.4650
5.6800 2429.1825
5.7000 2402.9575
5.7200 2455.3700
5.7400 2422.6050
5.7600 2573.8100
5.7800 2574.9950
5.8000 2477.9725
5.8200 2435.1025
5.8400 2403.6250
5.8600 2549.9400
5.8800 2439.9875
5.9000 2733.3750
5.9200 2764.1725
5.9400 2541.6675
5.9600 2568.5125
5.9800 2643.3950
6.0000 2565.4950
6.0200 2561.2275
6.0400 2471.4900
6.0600 2562.5375
6.0800 2583.2550
6.1000 2554.3700
6.1200 2665.0800
6.1400 2322.9275
6.1600 2617.7425
6.1800 2534.0525
6.2000 2638.6175
6.2200 2552.3275
6.2400 2517.9250
6.2600 2622.7700
6.2800 2743.3625
6.3000 2661.9175
6.3200 2646.3175
6.3400 2530.9100
6.3600 2574.1275
6.3800 2858.8675
6.4000 2755.1875
6.4200 2571.9500
6.4400 2541.2250
6.4600 2740.0575
6.4800 2904.1225
6.5000 2766.9425
6.5200 2470.9600
6.5400 2624.4575
6.5600 2697.6650
6.5800 2739.2525
6.6000 2691.0450
6.6200 2660.1250
6.6400 2664.8750
6.6600 2667.2850
6.6800 2700.0000
6.7000 2701.7900
6.7200 2702.9650
6.7400 2677.9675
6.7600 2683.3725
6.7800 2812.5500
6.8000 2905.3075
6.8200 2654.0900
6.8400 2397.6600
6.8600 2663.7025
6.8800 2791.0725
6.9000 2825.0050
6.9200 2704.7750
6.9400 2623.1975
6.9600 2678.0075
6.9800 2616.6000
7.0000 2817.8275
7.0200 2797.7900
7.0400 2527.8725
7.0600 2695.2275
7.0800 2702.9925
7.1000 2718.9250
7.1200 2914.0425
7.1400 3123.3250
7.1600 2998.3375
7.1800 2843.1425
7.2000 2636.8850
7.2200 2740.5425
7.2400 3059.0300
7.2600 2964.5250
7.2800 2820.9225
7.3000 2771.4550
7.3200 2772.5025
7.3400 2793.1325
7.3600 2724.5475
7.3800 2876.4975
7.4000 2783.0825
7.4200 2843.1975
7.4400 2793.8700
7.4600 3053.5300
7.4800 3045.5000
7.5000 2922.5925
7.5200 2740.7150
7.5400 2710.2175
7.5600 2905.0225
7.5800 3164.5300
7.6000 3188.4800
7.6200 2965.3600
7.6400 2984.6450
7.6600 2905.7000
7.6800 2734.6325
7.7000 2840.3425
7.7200 2870.1675
7.7400 2893.8325
7.7600 2943.8250
7.7800 2929.1675
7.8000 2779.1275
7.8200 2946.6925
7.8400 2839.7175
7.8600 2914.7775
7.8800 2802.2275
7.9000 2989.5625
7.9200 2951.7375
7.9400 2935.7525
7.9600 2823.9675
7.9800 2721.5325
8.0000 2753.3850
8.0200 2980.4050
8.0400 3158.7975
8.0600 3060.9900
8.0800 3177.0300
8.1000 3197.6850
8.1200 3073.2775
8.1400 2986.9650
8.1600 3342.6625
8.1800 3068.6500
8.2000 3082.5650
8.2200 2997.0650
8.2400 3000.2725
8.2600 2859.7275
8.2800 3082.2950
8.3000 3151.0625
8.3200 3073.7075
8.3400 3126.5075
8.3600 3059.0850
8.3800 2915.3275
8.4000 3022.6400
8.4200 3125.0500
8.4400 2827.1675
8.4600 2935.0300
8.4800 2958.6100
8.5000 3038.5400
8.5200 3084.9025
8.5400 3073.5325
8.5600 3106.3400
8.5800 2976.4075
8.6000 2895.1175
8.6200 3007.2425
8.6400 3216.2825
8.6600 3082.0925
8.6800 3269.6150
8.7000 2969.9450
8.7200 2980.1925
8.7400 3206.6175
8.7600 3089.9925
8.7800 3031.6775
8.8000 3024.8800
8.8200 3286.6825
8.8400 3263.3475
8.8600 3240.0550
8.8800 3178.4800
8.9000 3091.6675
8.9200 3124.6900
8.9400 3243.4925
8.9600 3178.3925
8.9800 3145.1750
9.0000 3109.7325
9.0200 3180.0525
9.0400 3147.0100
9.0600 3066.6675
9.0800 3035.6300
9.1000 2927.9075
9.1200 3024.6225
9.1400 3112.8150
9.1600 3193.5025
9.1800 3171.5325
9.2000 3225.6800
9.2200 3303.5900
9.2400 3061.0475
9.2600 3162.6300
9.2800 3237.1175
9.3000 3170.4700
9.3200 3132.7200
9.3400 3167.9425
9.3600 3020.5300
9.3800 3080.1225
9.4000 3483.3475
9.4200 3174.6325
9.4400 3219.4675
9.4600 3268.2550
9.4800 3271.8300
9.5000 3237.7575
9.5200 3148.4200
9.5400 3130.6225
9.5600 3103.8075
9.5800 3232.5475
9.6000 3397.3450
9.6200 3321.7925
9.6400 3167.1475
9.6600 3073.4125
9.6800 3298.9225
9.7000 3386.8975
9.7200 3420.6250
9.7400 3180.2325
9.7600 3175.9550
9.7800 3222.8475
9.8000 3245.3725
9.8200 3186.5075
9.8400 3062.7725
9.8600 3269.7350
9.8800 3266.4900
9.9000 3220.7050
9.9200 3350.0000
9.9400 3342.3875
9.9600 3314.4125
9.9800 3340.1500
10.0000 3303.0575
10.0200 3153.0700
10.0400 3106.7450
10.0600 3218.6400
10.0800 3403.1500
10.1000 3358.1550
10.1200 3377.9875
10.1400 3098.1300
10.1600 3067.3625
10.1800 3512.4800
10.2000 3551.9575
10.2200 3297.5875
10.2400 3351.5925
10.2600 3452.8875
10.2800 3361.7675
10.3000 3429.8775
10.3200 3462.3725
10.3400 3327.9225
10.3600 3360.6250
10.3800 3429.6275
10.4000 3346.4000
10.4200 3441.6525
10.4400 3608.6725
10.4600 3611.0600
10.4800 3404.8550
10.5000 3293.9775
10.5200 3225.0000
10.5400 3280.7300
10.5600 3522.9125
10.5800 3381.7100
10.6000 3312.0500
10.6200 3199.8400
10.6400 3158.3325
10.6600 3168.1950
10.6800 3275.6900
10.7000 3504.9850
10.7200 3216.7800
10.7400 3316.7400
10.7600 3408.3500
10.7800 3413.9125
10.8000 3261.0225
10.8200 3400.0000
10.8400 3400.0000
10.8600 3401.3750
10.8800 3406.9625
10.9000 3376.7650
10.9200 3265.1500
10.9400 3357.1000
10.9600 3628.3050
10.9800 3478.8025
11.0000 3323.7925
11.0200 3499.7100
11.0400 3361.2150
11.0600 3562.0375
11.0800 3641.0075
11.1000 3685.0950
11.1200 3455.1025
11.1400 3430.6850
11.1600 3767.3250
11.1800 3276.7575
11.2000 3317.7275
11.2200 3692.3100
11.2400 3519.2750
11.2600 3552.8325
11.2800 3619.4500
11.3000 3418.6725
11.3200 3496.9025
11.3400 3624.3750
11.3600 3634.6500
11.3800 3520.8950
11.4000 3825.9350
11.4200 3591.1175
11.4400 3546.7275
11.4600 3593.9150
11.4800 3663.5450
11.5000 3507.2025
11.5200 3779.5850
11.5400 3732.1875
11.5600 3585.8150
11.5800 3539.3875
11.6000 3224.9550
11.6200 3437.5575
11.6400 3588.9525
11.6600 3714.1775
11.6800 3450.9125
11.7000 3640.5900
11.7200 3332.7500
11.7400 3602.6950
11.7600 3775.0675
11.7800 3877.6175
11.8000 4115.4000
11.8200 3665.4575
11.8400 3749.7475
11.8600 3975.2400
11.8800 3779.1825
11.9000 3494.1475
11.9200 3461.8325
11.9400 3485.6575
11.9600 3561.3600
11.9800 3890.9150
12.0000 3614.0700
12.0200 3806.8175
12.0400 3492.4575
12.0600 3542.0475
12.0800 3466.7700
12.1000 3344.4075
12.1200 3583.9825
12.1400 3628.2450
12.1600 3538.3250
12.1800 3555.5050
12.2000 3779.5975
12.2200 3599.3725
12.2400 3648.9025
12.2600 3639.4825
12.2800 3628.2625
12.3000 3657.5800
12.3200 3746.0750
12.3400 3950.6050
12.3600 3625.2200
12.3800 3686.5275
12.4000 3731.6550
12.4200 3877.9450
12.4400 3799.0975
12.4600 3905.1950
12.4800 3891.6675
12.5000 3919.9250
12.5200 3737.2400
12.5400 3937.5550
12.5600 3881.7325
12.5800 3687.5925
12.6000 3688.7450
12.6200 3883.1075
12.6400 3660.8325
12.6600 3400.9875
12.6800 3593.6550
12.7000 3657.8350
12.7200 3956.0325
12.7400 3469.1200
12.7600 3675.0000
12.7800 3696.3600
12.8000 3854.4700
12.8200 3815.3875
12.8400 3721.5825
12.8600 3557.1525
12.8800 3489.9600
12.9000 3575.5700
12.9200 3847.2875
12.9400 3902.8500
12.9600 3968.4900
12.9800 3792.5550
13.0000 3832.7325
13.0200 3573.8400
13.0400 3703.6300
13.0600 3745.0625
13.0800 3846.1525
13.1000 3884.2250
13.1200 3896.1025
13.1400 3918.3350
13.1600 3803.0700
13.1800 3915.6975
13.2000 4024.8550
13.2200 3827.2975
13.2400 3982.2400
13.2600 3900.0000
13.2800 3899.1525
13.3000 3916.9125
13.3200 4159.2325
13.3400 4275.9350
13.3600 3895.1150
13.3800 3783.2100
13.4000 3875.4650
13.4200 4040.6275
13.4400 4087.3950
13.4600 3896.4675
13.4800 3940.0775
13.5000 3943.9525
13.5200 4113.2350
13.5400 3992.9875
13.5600 3928.8700
13.5800 3968.9725
13.6000 4002.3525
13.6200 4088.6275
13.6400 3910.4825
13.6600 4088.0425
13.6800 3973.3450
13.7000 4035.0375
13.7200 3960.8175
13.7400 3921.7750
13.7600 4144.2375
13.7800 4047.5825
13.8000 3684.4075
13.8200 3895.4200
13.8400 4097.8000
13.8600 3890.2800
13.8800 3920.3950
13.9000 4412.7175
13.9200 4237.7725
13.9400 3832.7800
13.9600 4034.6450
13.9800 4225.8200
14.0000 4046.9050
14.0200 4122.6175
14.0400 4260.7700
14.0600 3909.5325
14.0800 4114.2475
14.1000 4002.7675
14.1200 4240.4250
14.1400 4213.3000
14.1600 4053.2450
14.1800 3900.2575
14.2000 4096.3075
14.2200 3848.7550
14.2400 4079.3750
14.2600 4455.6125
14.2800 4299.6925
14.3000 4195.3125
14.3200 4334.0500
14.3400 3999.4400
14.3600 3990.0075
14.3800 3980.9025
14.4000 4187.6675
14.4200 4256.4325
14.4400 4360.6050
14.4600 4500.9350
14.4800 4234.5125
14.5000 3771.5375
14.5200 4090.8750
14.5400 3981.0700
14.5600 4456.7600
14.5800 4288.2525
14.6000 4127.0800
14.6200 4551.8575
14.6400 4308.8050
14.6600 4321.7925
14.6800 4394.5350
14.7000 4169.2300
14.7200 4367.7450
14.7400 4510.7825
14.7600 4115.7500
14.7800 4274.0950
14.8000 4701.3925
14.8200 4412.9025
14.8400 4337.9550
14.8600 4280.8875
14.8800 4551.5275
14.9000 4410.7525
14.9200 4309.1350
14.9400 4645.2650
14.9600 4203.3850
14.9800 4272.0400
15.0000 4213.7925
15.0200 4341.9225
15.0400 4530.8700
15.0600 4464.2850
15.0800 4217.6850
15.1000 4243.3325
15.1200 4296.4225
15.1400 4619.8775
15.1600 4693.0725
15.1800 4512.9625
15.2000 4415.7600
15.2200 4383.9625
15.2400 4190.6675
15.2600 4625.0000
15.2800 4615.2825
15.3000 4334.9625
15.3200 4379.3550
15.3400 4258.3325
15.3600 4266.1650
15.3800 4513.9575
15.4000 4421.4000
15.4200 4308.8825
15.4400 4610.9800
15.4600 4408.7750
15.4800 4432.9475
15.5000 4724.5775
15.5200 4391.6200
15.5400 4718.1475
15.5600 4435.2275
15.5800 4513.0075
15.6000 4354.9450
15.6200 4585.2050
15.6400 4675.4925
15.6600 4698.2700
15.6800 4608.3325
15.7000 4605.7325
15.7200 4457.7800
15.7400 4424.3425
15.7600 4385.8350
15.7800 4551.1850
15.8000 4636.3600
15.8200 4858.3325
15.8400 4856.6475
15.8600 4716.2975
15.8800 4681.6975
15.9000 4526.5100
15.9200 4684.7925
15.9400 4852.3900
15.9600 5146.3525
15.9800 4641.4550
16.0000 4609.5450
16.0200 4824.2400
16.0400 4666.8325
16.0600 4709.4325
16.0800 5050.6850
16.1000 5331.9825
16.1200 4500.1775
16.1400 4716.6725
16.1600 4941.4925
16.1800 4675.4200
16.2000 5082.3625
16.2200 5033.4925
16.2400 4908.8325
16.2600 4759.0525
16.2800 4932.3525
16.3000 5107.2125
16.3200 5025.6025
16.3400 4859.6725
16.3600 4618.8050
16.3800 4789.9775
16.4000 4799.9125
16.4200 5277.8775
16.4400 5052.8250
16.4600 4852.5850
16.4800 4989.7200
16.5000 5131.2700
16.5200 5125.1275
16.5400 5223.3800
16.5600 4831.8100
16.5800 4898.6600
16.6000 5063.5550
16.6200 4944.1050
16.6400 4990.6500
16.6600 5056.9225
16.6800 4830.1300
16.7000 4898.2875
16.7200 4989.4975
16.7400 4788.4350
16.7600 4913.2900
16.7800 4932.8975
16.8000 4722.5150
16.8200 5137.9400
16.8400 5141.9050
16.8600 5457.0750
16.8800 5507.0675
16.9000 5080.4450
16.9200 5018.2675
16.9400 4960.2525
16.9600 5022.7525
16.9800 5185.9050
17.0000 5055.0175
17.0200 5025.9075
17.0400 4928.7125
17.0600 5261.7100
17.0800 5275.0000
17.1000 5266.9975
17.1200 5274.6625
17.1400 4979.4275
17.1600 4862.9100
17.1800 5280.9650
17.2000 5140.6600
17.2200 5308.4500
17.2400 5284.8550
17.2600 5116.4775
17.2800 4989.2575
17.3000 5110.2325
17.3200 5370.2325
17.3400 5478.3350
17.3600 5649.4325
17.3800 5326.4375
17.4000 5379.3875
17.4200 5438.5475
17.4400 5284.0575
17.4600 5519.0700
17.4800 5431.0750
17.5000 5535.0225
17.5200 5361.0850
17.5400 5702.9850
17.5600 5278.3025
17.5800 5116.9000
17.6000 5405.5750
17.6200 5096.7775
17.6400 5215.5350
17.6600 5513.6050
17.6800 5509.9550
17.7000 5337.0550
17.7200 5317.2225
17.7400 5161.2550
17.7600 5266.4475
17.7800 5259.4875
17.8000 5529.5275
17.8200 5480.3300
17.8400 5552.3350
17.8600 5558.3325
17.8800 5295.8975
17.9000 5406.0900
17.9200 5208.6650
17.9400 5237.8450
17.9600 5572.2850
17.9800 5838.1225
18.0000 5781.5950
18.0200 5491.3450
18.0400 5543.2550
18.0600 5504.0925
18.0800 5599.3700
18.1000 5921.4200
18.1200 5560.9350
18.1400 5730.7725
18.1600 5734.7725
18.1800 5535.5775
18.2000 5661.0375
18.2200 5591.5000
18.2400 5598.5000
18.2600 5887.8750
18.2800 5999.9150
18.3000 5925.1675
18.3200 5720.2925
18.3400 6107.4400
18.3600 5644.9825
18.3800 5456.1275
18.4000 5877.9575
18.4200 5902.4550
18.4400 5554.6825
18.4600 5816.6375
18.4800 6037.2900
18.5000 5736.5275
18.5200 5513.0950
18.5400 5670.9100
18.5600 6124.3900
18.5800 5779.9900
18.6000 5442.9675
18.6200 5817.3975
18.6400 5978.1125
18.6600 5746.7400
18.6800 5775.9800
18.7000 5331.5375
18.7200 5570.9475
18.7400 6436.1175
18.7600 6061.7625
18.7800 5911.4950
18.8000 6143.1275
18.8200 6049.8850
18.8400 6136.2600
18.8600 6333.6000
18.8800 5815.4550
18.9000 5719.6825
18.9200 6002.1650
18.9400 6005.1025
18.9600 6292.1900
18.9800 6552.2400
19.0000 6306.3525
19.0200 6259.3850
19.0400 5938.3125
19.0600 5898.9325
19.0800 6037.8900
19.1000 6087.3300
19.1200 6200.2900
19.1400 5927.3225
19.1600 6244.6150
19.1800 6235.0400
19.2000 6261.0475
19.2200 6302.6750
19.2400 6394.6600
19.2600 6408.3325
19.2800 6214.5325
19.3000 6448.6175
19.3200 6391.4000
19.3400 6010.1550
19.3600 6221.5400
19.3800 6230.9775
19.4000 6296.2975
19.4200 6080.4375
19.4400 6034.5525
19.4600 6125.7075
19.4800 6439.7650
19.5000 6491.6675
19.5200 6335.8750
19.5400 6463.9475
19.5600 6265.5800
19.5800 6373.2000
19.6000 6562.1275
19.6200 6317.0700
19.6400 6611.2750
19.6600 6471.2825
19.6800 6328.0850
19.7000 6357.3925
19.7200 6478.6725
19.7400 6590.8975
19.7600 6426.7500
19.7800 6552.1100
19.8000 6346.4325
19.8200 6313.9200
19.8400 6573.8650
19.8600 6395.8775
19.8800 6696.7450
19.9000 6503.4525
19.9200 6650.6375
19.9400 6981.8975
19.9600 6786.2900
19.9800 6450.6875
20.0000 6405.4375
20.0200 6655.9175
20.0400 6687.7250
20.0600 6834.2725
20.0800 6900.9300
20.1000 6812.5125
20.1200 6819.0100
20.1400 6626.9950
20.1600 6856.1125
20.1800 7229.9800
20.2000 7027.8850
20.2200 6851.1600
20.2400 6879.2900
20.2600 7013.6700
20.2800 7007.8200
20.3000 6790.4025
20.3200 7140.0875
20.3400 6997.2750
20.3600 6854.0950
20.3800 6591.1300
20.4000 6775.2350
20.4200 6806.4900
20.4400 6887.1350
20.4600 6868.1675
20.4800 6711.2425
20.5000 6788.5175
20.5200 6729.9675
20.5400 6834.8875
20.5600 6773.5350
20.5800 7068.9075
20.6000 6811.5925
20.6200 6804.5250
20.6400 6825.0000
20.6600 6897.7125
20.6800 6910.0650
20.7000 6875.3675
20.7200 6958.8525
20.7400 6904.4175
20.7600 7014.6900
20.7800 7010.6450
20.8000 7288.2375
20.8200 6751.6875
20.8400 6994.9650
20.8600 7010.4525
20.8800 7055.0175
20.9000 7198.6575
20.9200 7298.3300
20.9400 7219.2975
20.9600 7139.8050
20.9800 6755.9725
21.0000 6882.7625
21.0200 7085.5975
21.0400 6937.9950
21.0600 7095.8500
21.0800 6868.9225
21.1000 6969.5925
21.1200 7089.1425
21.1400 6845.7050
21.1600 6843.4300
21.1800 7096.6500
21.2000 6956.1325
21.2200 7038.2025
21.2400 7191.4975
21.2600 7294.8925
21.2800 7475.3000
21.3000 7353.9100
21.3200 7483.5125
21.3400 7206.7400
21.3600 7125.2425
21.3800 7379.1150
21.4000 7414.2800
21.4200 7619.9650
21.4400 7465.7275
21.4600 7372.8650
21.4800 7404.2200
21.5000 7291.6675
21.5200 7480.9275
21.5400 7446.1475
21.5600 7501.6925
21.5800 7471.1825
21.6000 7437.5875
21.6200 7451.9275
21.6400 7421.2000
21.6600 7154.9425
21.6800 7393.7575
21.7000 7403.5650
21.7200 7188.2000
21.7400 7438.4100
21.7600 7390.4500
21.7800 7584.5725
21.8000 7405.7650
21.8200 7277.7825
21.8400 7455.8125
21.8600 7738.2425
21.8800 7524.6425
21.9000 7483.4925
21.9200 7399.1400
21.9400 7200.8400
21.9600 7317.0775
21.9800 7413.5325
22.0000 7075.2025
22.0200 7399.3525
22.0400 7599.0525
22.0600 7614.3375
22.0800 7640.6500
22.1000 7763.7500
22.1200 7545.3025
22.1400 7620.7400
22.1600 7691.6675
22.1800 7655.9575
22.2000 7552.5300
22.2200 7314.9225
22.2400 7547.3450
22.2600 7503.4400
22.2800 7569.1925
22.3000 7495.2425
22.3200 7624.2300
22.3400 7694.1200
22.3600 7791.4800
22.3800 7944.7200
22.4000 7757.5250
22.4200 7348.5700
22.4400 7380.0650
22.4600 7484.9600
22.4800 7732.7125
22.5000 7955.3200
22.5200 8228.7300
22.5400 8064.4075
22.5600 7897.9625
22.5800 7753.7675
22.6000 7780.6975
22.6200 7793.6475
22.6400 7978.7000
22.6600 7797.0225
22.6800 7629.1750
22.7000 7854.2575
22.7200 7806.7825
22.7400 7744.7350
22.7600 7932.1500
22.7800 8016.6675
22.8000 7653.5225
22.8200 7585.3050
22.8400 7588.0850
22.8600 7741.7250
22.8800 7802.4475
22.9000 7639.6825
22.9200 7656.5875
22.9400 7812.2175
22.9600 7950.6950
22.9800 7857.4375
23.0000 7601.8175
23.0200 7714.5975
23.0400 7927.9800
23.0600 7699.9475
23.0800 7669.2825
23.1000 7891.1525
23.1200 7969.4700
23.1400 7856.2600
23.1600 7750.4000
23.1800 7675.4800
23.2000 7617.0425
23.2200 7835.8075
23.2400 8177.3250
23.2600 8018.3825
23.2800 7869.5425
23.3000 7823.0875
23.3200 7805.4375
23.3400 7726.8950
23.3600 7932.6575
23.3800 7725.7775
23.4000 7811.7575
23.4200 7904.4075
23.4400 7875.0000
23.4600 7746.0150
23.4800 7691.0950
23.5000 7678.5750
23.5200 7559.7300
23.5400 7702.8325
23.5600 7544.9100
23.5800 7684.2325
23.6000 7775.6575
23.6200 7860.5575
23.6400 8070.9200
23.6600 8076.0425
23.6800 7985.8725
23.7000 8016.2400
23.7200 7718.9300
23.7400 7766.3100
23.7600 7992.1200
23.7800 7968.4825
23.8000 8086.7650
23.8200 7907.2550
23.8400 7538.8750
23.8600 7619.1000
23.8800 8213.1675
23.9000 7987.9600
23.9200 7824.7225
23.9400 7932.1275
23.9600 7705.0250
23.9800 7902.3875
24.0000 7819.3650
24.0200 7740.7825
24.0400 7951.3400
24.0600 7756.1725
24.0800 7910.8650
24.1000 7998.0100
24.1200 7845.6825
24.1400 7617.8025
24.1600 7858.6775
24.1800 7985.7750
24.2000 7810.9700
24.2200 7726.5950
24.2400 7867.1050
24.2600 8066.7725
24.2800 7818.5825
24.3000 7663.1875
24.3200 7580.5425
24.3400 7619.2350
24.3600 7714.8775
24.3800 7729.9500
24.4000 7585.1275
24.4200 7680.5675
24.4400 7939.7050
24.4600 8049.5600
24.4800 8037.2500
24.5000 7713.2650
24.5200 7543.9575
24.5400 7984.4925
24.5600 8041.4525
24.5800 7855.5750
24.6000 7793.1975
24.6200 7797.0325
24.6400 7791.2025
24.6600 7920.8700
24.6800 8081.4275
24.7000 8068.6650
24.7200 7927.9375
24.7400 8098.6300
24.7600 8302.4225
24.7800 7954.7075
24.8000 7844.9425
24.8200 7738.9600
24.8400 7476.7125
24.8600 7498.1100
24.8800 7698.7075
24.9000 7974.1350
24.9200 8108.3325
24.9400 8075.5200
24.9600 8106.1375
24.9800 7911.8950
25.0000 7683.0650
25.0200 7710.4500
25.0400 7814.0200
25.0600 7788.8675
25.0800 7613.1700
25.1000 7636.5850
25.1200 7843.8025
25.1400 7859.8375
25.1600 7524.9600
25.1800 7464.6850
25.2000 7709.5625
25.2200 7722.5525
25.2400 7712.8900
25.2600 7640.3750
25.2800 7695.5975
25.3000 7847.5900
25.3200 7668.2925
25.3400 7747.4500
25.3600 7828.1350
25.3800 7770.4275
25.4000 7803.2550
25.4200 7675.6750
25.4400 7583.9025
25.4600 7889.3025
25.4800 7977.1175
25.5000 7763.0725
25.5200 7818.6825
25.5400 7753.7000
25.5600 7867.6375
25.5800 7920.1925
25.6000 7784.5900
25.6200 7808.3325
25.6400 7952.1175
25.6600 7939.8625
25.6800 7769.2900
25.7000 7785.2775
25.7200 7824.6950
25.7400 7596.8750
25.7600 7391.6675
25.7800 7782.1175
25.8000 8038.6900
25.8200 7869.2575
25.8400 7680.4675
25.8600 7562.5850
25.8800 7575.1525
25.9000 7701.8750
25.9200 7858.9075
25.9400 7967.4350
25.9600 7932.4100
25.9800 7770.4000
26.0000 7612.0550
26.0200 7596.0200
26.0400 7725.0050
26.0600 7650.2750
26.0800 7645.2900
26.1000 7853.5750
26.1200 8061.4050
26.1400 8092.7075
26.1600 7983.5600
26.1800 8024.0700
26.2000 7882.8850
26.2200 7777.0300
26.2400 8074.7025
26.2600 8092.2025
26.2800 8054.0000
26.3000 8269.2275
26.3200 8377.4350
26.3400 8626.4850
26.3600 8869.4625
26.3800 9076.5375
26.4000 9114.5025
26.4200 9105.8075
26.4400 9063.8800
26.4600 8698.8675
26.4800 8656.4225
26.5000 8735.9625
26.5200 8494.3100
26.5400 8526.8950
26.5600 8529.6000
26.5800 8412.6450
26.6000 8277.9275
26.6200 7778.3000
26.6400 7844.6000
26.6600 8143.4950
26.6800 8176.0225
26.7000 7930.5200
26.7200 7798.6525
26.7400 7698.6975
26.7600 7594.8900
26.7800 7731.9200
26.8000 7711.9600
26.8200 7704.6100
26.8400 7583.4700
26.8600 7598.5200
26.8800 7579.6800
26.9000 7204.1075
26.9200 7240.7550
26.9400 7450.0350
26.9600 7408.1525
26.9800 7396.1375
27.0000 7668.5400
27.0200 7591.8075
27.0400 7595.7775
27.0600 7769.3700
27.0800 7783.3325
27.1000 7761.3725
27.1200 7631.1200
27.1400 7565.5350
27.1600 7519.2750
27.1800 7494.8675
27.2000 7621.9275
27.2200 7545.2700
27.2400 7445.8075
27.2600 7279.6675
27.2800 7377.4650
27.3000 7693.7650
27.3200 7846.5650
27.3400 7670.0850
27.3600 7430.3050
27.3800 7400.6400
27.4000 7518.1050
27.4200 7666.6200
27.4400 7541.5350
27.4600 7391.6125
27.4800 7586.0900
27.5000 7486.9050
27.5200 7457.9975
27.5400 7385.3250
27.5600 7443.3750
27.5800 7561.9625
27.6000 7138.4825
27.6200 7279.1775
27.6400 7360.5375
27.6600 7433.9100
27.6800 7486.7150
27.7000 7397.2600
27.7200 7365.9200
27.7400 7575.2875
27.7600 7683.4275
27.7800 7526.6750
27.8000 7346.2850
27.8200 7462.1325
27.8400 7374.7100
27.8600 7375.5800
27.8800 7322.9950
27.9000 7433.6675
27.9200 7719.8225
27.9400 7833.5500
27.9600 7392.2225
27.9800 7124.9300
28.0000 7226.3475
28.0200 7367.1550
28.0400 7531.3775
28.0600 7478.1975
28.0800 7394.0475
28.1000 7405.7775
28.1200 7544.2325
28.1400 7355.1725
28.1600 7296.4450
28.1800 7315.1125
28.2000 7494.7975
28.2200 7434.4525
28.2400 7381.0100
28.2600 7332.3050
28.2800 7156.6075
28.3000 7275.9150
28.3200 7236.3500
28.3400 7178.4300
28.3600 7470.7100
28.3800 7702.2750
28.4000 7419.7025
28.4200 7691.2000
28.4400 8073.9025
28.4600 7750.6675
28.4800 7447.6600
28.5000 7461.3200
28.5200 7523.2275
28.5400 7625.0000
28.5600 7477.1225
28.5800 7226.0200
28.6000 7296.5325
28.6200 7393.0250
28.6400 7432.9100
28.6600 7483.5825
28.6800 7541.6375
28.7000 7370.4250
28.7200 7188.2750
28.7400 7108.8150
28.7600 7279.9700
28.7800 7238.8150
28.8000 7227.6500
28.8200 7182.6775
28.8400 7147.7175
28.8600 7163.3225
28.8800 7251.6200
28.9000 7602.7950
28.9200 7541.5125
28.9400 7413.8825
28.9600 7355.8750
28.9800 7282.7950
29.0000 7306.8375
29.0200 7066.9175
29.0400 7216.0075
29.0600 7521.0300
29.0800 7421.0225
29.1000 7495.0850
29.1200 7366.6725
29.1400 7111.3175
29.1600 7000.3775
29.1800 7175.5225
29.2000 7172.0550
29.2200 6965.0125
29.2400 7083.3075
29.2600 7259.8025
29.2800 7267.3400
29.3000 7044.1800
29.3200 7165.9475
29.3400 7236.1500
29.3600 7580.9375
29.3800 7396.7325
29.4000 7529.6025
29.4200 7186.0475
29.4400 7345.2725
29.4600 7373.9950
29.4800 7355.9675
29.5000 7345.7025
29.5200 7237.4350
29.5400 7275.2800
29.5600 7088.9925
29.5800 7050.8075
29.6000 7318.0550
29.6200 7263.6950
29.6400 7370.3025
29.6600 7405.2925
29.6800 7153.2300
29.7000 7034.9525
29.7200 6839.0050
29.7400 6962.7100
29.7600 7401.2100
29.7800 7284.0575
29.8000 7402.4925
29.8200 7175.3000
29.8400 7370.4800
29.8600 6743.6825
29.8800 6887.8900
29.9000 7483.3625
29.9200 7298.9775
29.9400 6939.4150
29.9600 6594.3400
29.9800 6975.1675
30.0000 7385.0325
30.0200 7149.8700
30.0400 6947.4625
30.0600 6981.4950
30.0800 6894.9700
30.1000 6942.5950
30.1200 7212.5325
30.1400 7230.9325
30.1600 7011.3650
30.1800 7062.3075
30.2000 7039.1525
30.2200 7062.3325
30.2400 7143.5525
30.2600 6965.4475
30.2800 7013.5750
30.3000 6874.8475
30.3200 6909.1400
30.3400 7028.6650
30.3600 6985.9725
30.3800 7279.1625
30.4000 7008.7075
30.4200 6834.7150
30.4400 7023.5150
30.4600 6865.0775
30.4800 6860.6925
30.5000 7114.1825
30.5200 7122.0325
30.5400 6922.0275
30.5600 6755.8725
30.5800 7020.0975
30.6000 6910.3775
30.6200 7222.7525
30.6400 6998.0400
30.6600 6987.7675
30.6800 6957.5375
30.7000 6998.4725
30.7200 7227.0125
30.7400 6984.1175
30.7600 7274.2750
30.7800 7256.4675
30.8000 7057.4875
30.8200 6832.7450
30.8400 6758.9975
30.8600 7093.4950
30.8800 7095.1750
30.9000 7204.4000
30.9200 6809.9550
30.9400 6443.6000
30.9600 6630.7200
30.9800 6743.4650
31.0000 6773.2450
31.0200 6856.5550
31.0400 6841.1550
31.0600 6806.5725
31.0800 6796.5000
31.1000 6832.0700
31.1200 6950.8825
31.1400 6743.0425
31.1600 6976.8200
31.1800 7188.8825
31.2000 6918.9900
31.2200 6794.6300
31.2400 7236.3775
31.2600 6965.0200
31.2800 6928.0825
31.3000 7040.4375
31.3200 6844.3625
31.3400 6657.3400
31.3600 6786.1800
31.3800 6678.0650
31.4000 6860.0375
31.4200 6628.1025
31.4400 6456.2700
31.4600 6835.7450
31.4800 6686.9575
31.5000 6750.1800
31.5200 6660.1700
31.5400 6773.8475
31.5600 6870.9775
31.5800 6704.5050
31.6000 6820.8525
31.6200 6580.9775
31.6400 6600.9075
31.6600 6619.7975
31.6800 6872.5325
31.7000 6900.0000
31.7200 6821.8325
31.7400 6506.0875
31.7600 6747.8550
31.7800 6608.1500
31.8000 6597.6850
31.8200 6779.4100
31.8400 6854.0525
31.8600 6533.1625
31.8800 6715.0950
31.9000 6799.8450
31.9200 6767.2225
31.9400 6383.3325
31.9600 6480.7725
31.9800 6985.0400
32.0000 6947.3675
32.0200 6871.9225
32.0400 6536.4775
32.0600 6516.0600
32.0800 6656.7800
32.1000 7080.7000
32.1200 6477.1375
32.1400 6854.1800
32.1600 7055.4975
32.1800 7016.3025
32.2000 7097.2150
32.2200 6802.3175
32.2400 7205.2775
32.2600 7523.9400
32.2800 7825.9175
32.3000 8280.9150
32.3200 8954.3125
32.3400 9595.5500
32.3600 10700.3475
32.3800 11591.5775
32.4000 11307.7425
32.4200 11453.9625
32.4400 11059.9950
32.4600 11087.5625
32.4800 10765.2400
32.5000 10158.7425
32.5200 9504.5450
32.5400 9553.3650
32.5600 9215.7350
32.5800 8574.5900
32.6000 7754.1900
32.6200 7721.9200
32.6400 7690.8425
32.6600 7559.4675
32.6800 7127.2850
32.7000 7363.9000
32.7200 6756.3725
32.7400 6907.1800
32.7600 6340.7300
32.7800 6862.6075
32.8000 6505.5025
32.8200 6473.0575
32.8400 6394.4400
32.8600 6428.5700
32.8800 6511.4050
32.9000 6417.0450
32.9200 6559.2200
32.9400 6571.0600
32.9600 6602.2475
32.9800 6525.9125
33.0000 6334.5375
33.0200 6486.6150
33.0400 6451.6575
33.0600 6577.0725
33.0800 6862.5475
33.1000 6515.8625
33.1200 6485.2550
33.1400 6285.5450
33.1600 6461.2250
33.1800 6429.8425
33.2000 6653.0525
33.2200 6744.9200
33.2400 6521.2975
33.2600 6462.8500
33.2800 6282.5050
33.3000 6604.3175
33.3200 6422.7600
33.3400 6810.3925
33.3600 6382.5425
33.3800 6448.4000
33.4000 6260.3550
33.4200 6453.2750
33.4400 6206.4925
33.4600 6291.6550
33.4800 6385.9875
33.5000 6303.6100
33.5200 6157.5950
33.5400 6359.5400
33.5600 6381.5400
33.5800 6474.8625
33.6000 6551.0625
33.6200 6140.4875
33.6400 6444.3450
33.6600 6144.3125
33.6800 6289.2025
33.7000 6135.9875
33.7200 6152.0450
33.7400 5841.6550
33.7600 6347.4825
33.7800 6291.0250
33.8000 6019.0950
33.8200 6061.6675
33.8400 6109.6575
33.8600 6017.3325
33.8800 6440.3625
33.9000 6120.5975
33.9200 6030.4550
33.9400 5828.8000
33.9600 5905.3700
33.9800 6023.6900
34.0000 6316.3075
34.0200 6133.5600
34.0400 5982.5025
34.0600 6314.8275
34.0800 6280.0275
34.1000 6391.3175
34.1200 6384.6975
34.1400 6411.3525
34.1600 6282.3650
34.1800 6263.3600
34.2000 6379.4600
34.2200 6062.7775
34.2400 6183.9075
34.2600 6205.8450
34.2800 6370.6900
34.3000 6245.3125
34.3200 6352.5500
34.3400 6170.0625
34.3600 6287.3050
34.3800 6422.5300
34.4000 6329.0200
34.4200 6171.6300
34.4400 6369.4375
34.4600 6475.7750
34.4800 6154.5025
34.5000 6360.5575
34.5200 6464.2325
34.5400 6337.0650
34.5600 6097.1575
34.5800 6406.4350
34.6000 6297.4950
34.6200 6670.5225
34.6400 6357.8975
34.6600 6331.4075
34.6800 6854.8650
34.7000 6541.6675
34.7200 6539.7550
34.7400 6324.4175
34.7600 6249.6650
34.7800 6200.7525
34.8000 6335.3200
34.8200 6766.4025
34.8400 6691.1325
34.8600 6475.1775
34.8800 6600.0325
34.9000 6691.6025
34.9200 7007.7775
34.9400 6360.1625
34.9600 7163.5400
34.9800 6810.0975
35.0000 6750.3475
35.0200 6700.3525
35.0400 6823.9900
35.0600 7163.5475
35.0800 7496.6075
35.1000 7261.0475
35.1200 7604.0350
35.1400 7945.4450
35.1600 8229.2600
35.1800 8922.5375
35.2000 9867.6850
35.2200 10775.7550
35.2400 13196.1875
35.2600 15039.0525
35.2800 18070.1725
35.3000 21435.1100
35.3200 24798.4475
35.3400 29544.5825
35.3600 35379.3750
35.3800 40939.5750
35.4000 48738.3575
35.4200 52173.9875
35.4400 54184.4275
35.4600 54007.2550
35.4800 52312.4275
35.5000 49895.0325
35.5200 46867.7175
35.5400 43579.4200
35.5600 39398.4350
35.5800 34848.8125
35.6000 29901.7750
35.6200 25974.0625
35.6400 22422.6450
35.6600 20260.1075
35.6800 16732.0200
35.7000 14317.0800
35.7200 12654.3125
35.7400 11603.9325
35.7600 10230.0075
35.7800 9292.6625
35.8000 8249.9475
35.8200 8215.8575
35.8400 7575.1600
35.8600 7438.8200
35.8800 6974.9725
35.9000 6855.2700
35.9200 7070.8000
35.9400 6264.1050
35.9600 6617.9700
35.9800 6091.4525
36.0000 6482.3250
36.0200 6280.8800
36.0400 6227.4925
36.0600 6154.5650
36.0800 5852.9250
36.1000 6122.2775
36.1200 6305.4850
36.1400 6324.4600
36.1600 6068.1300
36.1800 5980.0200
36.2000 5874.0275
36.2200 6076.1500
36.2400 5905.6625
36.2600 5837.4750
36.2800 5709.6000
36.3000 5939.4750
36.3200 6197.5475
36.3400 6178.1250
36.3600 5890.1075
36.3800 5997.4200
36.4000 6092.8475
36.4200 5900.4575
36.4400 5998.3275
36.4600 5824.5425
36.4800 5762.4350
36.5000 5720.1275
36.5200 5930.3900
36.5400 5370.5300
36.5600 5712.7125
36.5800 5788.0400
36.6000 5829.6650
36.6200 5544.8625
36.6400 5600.0800
36.6600 5903.7500
36.6800 5842.5350
36.7000 5848.4500
36.7200 5638.6025
36.7400 5918.3325
36.7600 6100.6675
36.7800 5747.9325
36.8000 5633.1650
36.8200 5775.1725
36.8400 5701.6625
36.8600 5766.5900
36.8800 5745.0650
36.9000 5764.0950
36.9200 5490.3650
36.9400 5987.9500
36.9600 5990.3900
36.9800 5648.3975
37.0000 5526.5500
37.0200 5687.4800
37.0400 5723.1700
37.0600 5576.7925
37.0800 5550.9300
37.1000 5816.1850
37.1200 5827.8425
37.1400 5633.1775
37.1600 5682.0300
37.1800 5595.9675
37.2000 5708.3425
37.2200 5982.0875
37.2400 5635.1300
37.2600 5473.3950
37.2800 5934.2025
37.3000 6021.9400
37.3200 5835.0725
37.3400 5676.9900
37.3600 5789.5325
37.3800 5466.1375
37.4000 5503.9400
37.4200 5770.9325
37.4400 6258.2475
37.4600 5556.6400
37.4800 5528.5550
37.5000 5686.3200
37.5200 5917.8475
37.5400 5986.0825
37.5600 5724.9450
37.5800 5899.3550
37.6000 5803.8650
37.6200 5740.2250
37.6400 5582.6200
37.6600 5938.2850
37.6800 5770.8500
37.7000 6062.3725
37.7200 5823.7175
37.7400 5803.5500
37.7600 5865.3675
37.7800 5575.9025
37.8000 5560.5675
37.8200 6021.4250
37.8400 5950.9475
37.8600 6095.1575
37.8800 6082.5075
37.9000 5919.3700
37.9200 6160.1850
37.9400 5989.5225
37.9600 6112.1650
37.9800 6296.6075
38.0000 6156.1600
38.0200 5794.7250
38.0400 6182.5725
38.0600 6049.3075
38.0800 5784.2125
38.1000 6182.4125
38.1200 6532.2175
38.1400 6785.7675
38.1600 6720.4100
38.1800 6790.5450
38.2000 6745.7175
38.2200 7442.1775
38.2400 7007.1700
38.2600 7169.0275
38.2800 7682.1375
38.3000 7996.3950
38.3200 8297.3700
38.3400 8550.1925
38.3600 9529.4600
38.3800 10372.4600
38.4000 11643.5675
38.4200 13024.1775
38.4400 14845.5950
38.4600 17521.6600
38.4800 20792.2500
38.5000 24833.1950
38.5200 30059.8575
38.5400 35868.2000
38.5600 41638.5675
38.5800 46586.3725
38.6000 49696.8500
38.6200 51124.3150
38.6400 51570.9425
38.6600 51285.9350
38.6800 49663.9175
38.7000 47846.8325
38.7200 45568.5950
38.7400 41545.3125
38.7600 38361.5525
38.7800 35039.7925
38.8000 32499.3225
38.8200 30114.3200
38.8400 28985.3500
38.8600 25961.4750
38.8800 24328.8525
38.9000 22313.4450
38.9200 20498.1450
38.9400 19237.0025
38.9600 17601.2000
38.9800 16410.6575
39.0000 14596.3775
39.0200 12829.1100
39.0400 11885.8025
39.0600 11096.6775
39.0800 10251.0175
39.1000 9572.1025
39.1200 8787.3075
39.1400 8312.9600
39.1600 7765.0900
39.1800 7470.3875
39.2000 6944.6375
39.2200 6658.9150
39.2400 6537.8800
39.2600 6437.9675
39.2800 6292.1975
39.3000 6251.7900
39.3200 5857.8125
39.3400 5841.4075
39.3600 5794.9250
39.3800 5918.3225
39.4000 6212.1225
39.4200 5984.3250
39.4400 5971.4225
39.4600 5978.6950
39.4800 5845.4300
39.5000 5633.6075
39.5200 5725.5425
39.5400 5611.7000
39.5600 5695.6600
39.5800 5694.6775
39.6000 5709.0750
39.6200 5420.9675
39.6400 5615.8625
39.6600 5821.8650
39.6800 5807.0775
39.7000 5497.2800
39.7200 5344.4075
39.7400 5420.7825
39.7600 5271.4050
39.7800 5618.0600
39.8000 5588.9250
39.8200 5554.3800
39.8400 5590.0850
39.8600 5314.5600
39.8800 5567.1475
39.9000 5795.2525
39.9200 5441.3675
39.9400 5291.4075
39.9600 5409.4925
39.9800 5620.1275
40.0000 5247.0050
40.0200 5397.5375
40.0400 5598.4275
40.0600 5420.0475
40.0800 5356.2650
40.1000 5345.8150
40.1200 5354.1725
40.1400 5445.7700
40.1600 5412.6150
40.1800 5485.1400
40.2000 5666.0600
40.2200 5567.4375
40.2400 5479.4000
40.2600 5317.7675
40.2800 5353.4275
40.3000 5179.0500
40.3200 5207.2700
40.3400 5618.4475
40.3600 5614.2625
40.3800 5387.9350
40.4000 5318.8425
40.4200 5132.1800
40.4400 5183.3800
40.4600 5237.2725
40.4800 5450.0600
40.5000 5573.9800
40.5200 5224.7225
40.5400 5500.9725
40.5600 5430.3175
40.5800 5691.3525
40.6000 5439.1550
40.6200 5561.5350
40.6400 5706.9375
40.6600 5354.8000
40.6800 5440.9675
40.7000 5282.7775
40.7200 5125.1300
40.7400 5311.4800
40.7600 5234.7400
40.7800 5199.1150
40.8000 5172.2000
40.8200 5368.8875
40.8400 5666.3325
40.8600 5503.8900
40.8800 5336.3800
40.9000 5320.3125
40.9200 5205.3400
40.9400 5403.3700
40.9600 5302.9925
40.9800 5374.0850
41.0000 5445.2475
41.0200 5247.6850
41.0400 5041.8425
41.0600 5074.7925
41.0800 5321.8500
41.1000 5360.9375
41.1200 5448.1925
41.1400 5255.2000
41.1600 5217.3850
41.1800 5094.1950
41.2000 5386.8800
41.2200 5344.9800
41.2400 5501.8525
41.2600 5441.4225
41.2800 5345.6650
41.3000 5327.4725
41.3200 5225.4775
41.3400 5119.0075
41.3600 5179.2900
41.3800 5555.1125
41.4000 5402.7225
41.4200 5141.0800
41.4400 5106.6000
41.4600 5250.3000
41.4800 5302.5300
41.5000 5340.5825
41.5200 5479.9525
41.5400 5452.3425
41.5600 5168.1750
41.5800 5116.0600
41.6000 5158.9650
41.6200 5276.1125
41.6400 5348.0175
41.6600 5410.0650
41.6800 5352.9475
41.7000 5454.3225
41.7200 5373.4275
41.7400 5188.1425
41.7600 5121.9000
41.7800 5322.2700
41.8000 5507.9475
41.8200 5350.5350
41.8400 5315.2625
41.8600 5415.5950
41.8800 5444.3200
41.9000 5282.7725
41.9200 5395.4025
41.9400 5353.0900
41.9600 5172.8750
41.9800 5122.3175
42.0000 5220.9600
42.0200 5165.1700
42.0400 5257.4850
42.0600 5341.8800
42.0800 5198.2350
42.1000 5074.4650
42.1200 5078.0450
42.1400 5248.5550
42.1600 5218.6525
42.1800 5216.9875
42.2000 5291.9350
42.2200 5489.6325
42.2400 5563.8525
42.2600 5174.1500
42.2800 5044.5150
42.3000 5258.3550
42.3200 5250.0925
42.3400 5305.3475
42.3600 5236.4800
42.3800 5645.3075
42.4000 5479.8450
42.4200 5517.9450
42.4400 5481.7100
42.4600 5377.9600
42.4800 5454.7350
42.5000 5236.0675
42.5200 5391.1225
42.5400 5327.6675
42.5600 5424.9625
42.5800 5325.2525
42.6000 5183.8450
42.6200 5303.2800
42.6400 5151.1850
42.6600 5338.7150
42.6800 5483.6575
42.7000 5485.8850
42.7200 5410.1200
42.7400 5431.8375
42.7600 5417.8400
42.7800 5261.5925
42.8000 5186.2525
42.8200 5118.4300
42.8400 5077.9300
42.8600 5280.1100
42.8800 5310.7850
42.9000 5250.5075
42.9200 5300.8600
42.9400 5322.5825
42.9600 5477.7750
42.9800 5239.4125
43.0000 5229.8325
43.0200 5217.9200
43.0400 5142.2875
43.0600 5266.9125
43.0800 5176.1950
43.1000 5141.9900
43.1200 5350.7925
43.1400 5386.1400
43.1600 5445.6950
43.1800 5234.4500
43.2000 5168.2250
43.2200 5343.8775
43.2400 5353.1250
43.2600 5200.2900
43.2800 5318.2925
43.3000 5430.2800
43.3200 5196.0000
43.3400 5089.9475
43.3600 5066.2250
43.3800 5194.1600
43.4000 5015.4200
43.4200 5005.2775
43.4400 5102.1525
43.4600 5150.2350
43.4800 5321.5100
43.5000 5282.8750
43.5200 5401.5575
43.5400 5412.3225
43.5600 5329.1525
43.5800 5493.7025
43.6000 5313.8950
43.6200 5302.7675
43.6400 5233.8625
43.6600 5294.1225
43.6800 5459.0300
43.7000 5225.6350
43.7200 5270.3725
43.7400 5379.3325
43.7600 5402.7975
43.7800 5414.6875
43.8000 5398.0300
43.8200 5340.1975
43.8400 5159.2175
43.8600 4943.3800
43.8800 4882.0625
43.9000 5076.2450
43.9200 5329.9675
43.9400 5426.9025
43.9600 5228.8300
43.9800 5120.4300
44.0000 5082.3050
44.0200 4942.9400
44.0400 4987.0525
44.0600 5058.3325
44.0800 5134.5875
44.1000 5071.5975
44.1200 5172.5200
44.1400 5080.5575
44.1600 5243.7500
44.1800 5342.2550
44.2000 5207.5050
44.2200 5223.9900
44.2400 5327.2175
44.2600 5225.5150
44.2800 5158.5150
44.3000 5164.9375
44.3200 5238.7700
44.3400 5166.1025
44.3600 5299.1075
44.3800 5221.0775
44.4000 5029.9200
44.4200 5225.1900
44.4400 5365.0000
44.4600 5173.5125
44.4800 5194.7275
44.5000 5012.4475
44.5200 5103.9675
44.5400 5082.6300
44.5600 5006.3100
44.5800 4970.5100
44.6000 5075.5025
44.6200 5342.0275
44.6400 5172.5325
44.6600 5072.4400
44.6800 5113.5500
44.7000 5129.6500
44.7200 5362.2975
44.7400 5404.7450
44.7600 5362.9050
44.7800 5343.9400
44.8000 5301.9075
44.8200 5257.2575
44.8400 4899.3750
44.8600 5093.5650
44.8800 5298.5175
44.9000 5101.0775
44.9200 5076.8500
44.9400 5325.4850
44.9600 5261.4700
44.9800 5185.0075
45.0000 5272.3500
45.0200 5261.0150
45.0400 5252.8100
45.0600 5232.6150
45.0800 5188.8900
45.1000 5252.7025
45.1200 5332.5950
45.1400 5223.9475
45.1600 5259.2800
45.1800 5219.3200
45.2000 5066.9675
45.2200 5116.8050
45.2400 5207.4725
45.2600 5046.5175
45.2800 5037.1625
45.3000 5125.0000
45.3200 5187.5550
45.3400 5026.5950
45.3600 5071.9600
45.3800 5187.8675
45.4000 5089.9300
45.4200 5133.9675
45.4400 4978.5000
45.4600 5028.4125
45.4800 5258.5925
45.5000 5236.6850
45.5200 5183.3325
45.5400 5035.4975
45.5600 4986.9450
45.5800 5047.6175
45.6000 5082.1200
45.6200 4848.0550
45.6400 5033.5750
45.6600 5207.5050
45.6800 5224.5900
45.7000 5233.6600
45.7200 5088.6350
45.7400 5158.6050
45.7600 5238.3025
45.7800 5183.6000
45.8000 5243.2975
45.8200 5110.2375
45.8400 5104.4350
45.8600 5117.7700
45.8800 5093.4300
45.9000 5189.7600
45.9200 5524.6425
45.9400 5397.8775
45.9600 5232.9025
45.9800 5377.6100
46.0000 5279.7850
46.0200 5344.5400
46.0400 5427.2050
46.0600 5598.3325
46.0800 5579.8500
46.1000 5666.6825
46.1200 5714.7575
46.1400 5841.3375
46.1600 6136.7600
46.1800 6211.0400
46.2000 6144.2000
46.2200 6090.7075
46.2400 6148.3375
46.2600 6019.0450
46.2800 5768.3600
46.3000 5836.2300
46.3200 5930.5550
46.3400 5917.5875
46.3600 5855.6500
46.3800 5633.6775
46.4000 5259.9225
46.4200 5200.4625
46.4400 5211.5150
46.4600 5133.3325
46.4800 4981.4000
46.5000 4766.3150
46.5200 4912.3575
46.5400 5188.1525
46.5600 5083.0100
46.5800 5222.3975
46.6000 5444.5775
46.6200 5204.2250
46.6400 5103.6700
46.6600 5156.6950
46.6800 5356.5975
46.7000 5364.2450
46.7200 5206.7325
46.7400 5360.5325
46.7600 5399.6575
46.7800 5093.3250
46.8000 5044.9850
46.8200 5226.6150
46.8400 5165.0550
46.8600 4993.9250
46.8800 4951.5075
46.9000 5039.3150
46.9200 5313.2700
46.9400 5305.7400
46.9600 5236.1075
46.9800 5226.8100
47.0000 5208.1225
47.0200 5182.1475
47.0400 5021.0225
47.0600 5059.8375
47.0800 5135.0600
47.1000 5094.7950
47.1200 5277.2550
47.1400 5383.0750
47.1600 5229.7325
47.1800 5182.1825
47.2000 5140.1825
47.2200 5030.0350
47.2400 5099.5175
47.2600 5241.0700
47.2800 5211.5150
47.3000 5123.0850
47.3200 5221.0525
47.3400 5356.3650
47.3600 5360.9425
47.3800 5185.0125
47.4000 5027.6325
47.4200 5075.3950
47.4400 5321.0025
47.4600 5483.3325
47.4800 5313.7250
47.5000 5550.3100
47.5200 5508.8175
47.5400 5054.1050
47.5600 5159.9000
47.5800 5198.6550
47.6000 5289.1150
47.6200 5252.1075
47.6400 5085.5550
47.6600 5125.5500
47.6800 5137.7725
47.7000 5159.4150
47.7200 5086.2975
47.7400 5256.5700
47.7600 5293.3475
47.7800 5177.6175
47.8000 4986.5100
47.8200 4845.2675
47.8400 5107.8200
47.8600 5070.6925
47.8800 4994.2675
47.9000 5100.0000
47.9200 5117.6525
47.9400 5005.4175
47.9600 5001.8875
47.9800 5077.9675
48.0000 5137.6150
48.0200 5331.6050
48.0400 5292.0500
48.0600 5123.1450
48.0800 4915.8100
48.1000 4806.6725
48.1200 4871.9625
48.1400 5040.9400
48.1600 5280.3200
48.1800 5252.1800
48.2000 5224.9725
48.2200 5207.9675
48.2400 5181.9475
48.2600 5211.4400
48.2800 5121.6375
48.3000 5198.3300
48.3200 5333.7450
48.3400 5350.4100
48.3600 5441.3500
48.3800 5665.1600
48.4000 5503.1375
48.4200 5202.7875
48.4400 5615.5625
48.4600 6064.6300
48.4800 6130.1250
48.5000 6080.2925
48.5200 6404.2550
48.5400 7041.2900
48.5600 7822.1750
48.5800 8695.8275
48.6000 9623.5800
48.6200 10845.7750
48.6400 12525.7000
48.6600 13779.0100
48.6800 14084.3825
48.7000 14364.3775
48.7200 14799.5525
48.7400 14918.2850
48.7600 15040.3975
48.7800 15247.3325
48.8000 15049.4225
48.8200 14638.4775
48.8400 13830.6900
48.8600 12501.4250
48.8800 11406.0625
48.9000 10916.5850
48.9200 10272.3475
48.9400 9666.9750
48.9600 8948.9800
48.9800 8215.2350
49.0000 7937.1700
49.0200 7359.2675
49.0400 6652.9450
49.0600 6257.9875
49.0800 6279.9000
49.1000 5998.6550
49.1200 5647.1050
49.1400 5588.5875
49.1600 5603.3250
49.1800 5764.5575
49.2000 5704.5300
49.2200 5484.1375
49.2400 5262.9375
49.2600 5167.1950
49.2800 5217.7125
49.3000 5340.2150
49.3200 5467.9475
49.3400 5207.7950
49.3600 5079.5175
49.3800 5332.2725
49.4000 5291.7750
49.4200 5038.2575
49.4400 4989.3075
49.4600 4942.8500
49.4800 4974.4950
49.5000 4945.7900
49.5200 5035.5325
49.5400 5010.0200
49.5600 5053.2050
49.5800 5308.1100
49.6000 5300.0000
49.6200 5329.9375
49.6400 5221.5150
49.6600 5100.2150
49.6800 5377.5550
49.7000 5556.4325
49.7200 5137.3650
49.7400 4923.6275
49.7600 5105.9075
49.7800 4914.6500
49.8000 4602.6625
49.8200 4827.4875
49.8400 4972.0500
49.8600 4931.0150
49.8800 5106.3825
49.9000 5200.0000
49.9200 5089.2150
49.9400 4902.3925
49.9600 4910.1825
49.9800 4915.0200
50.0000 4931.0675
50.0200 4965.5925
50.0400 5120.9225
50.0600 5120.9625
50.0800 5018.4050
50.1000 4908.6300
50.1200 4848.3025
50.1400 5047.4350
50.1600 5035.7500
50.1800 4890.5125
50.2000 4841.8300
50.2200 4850.0000
50.2400 5041.1000
50.2600 5084.8875
50.2800 4933.0200
50.3000 4950.6200
50.3200 4983.3325
50.3400 5191.2250
50.3600 5272.8925
50.3800 5192.2625
50.4000 5208.0375
50.4200 5217.1050
50.4400 5254.3825
50.4600 5160.7125
50.4800 5032.9075
50.5000 5071.8850
50.5200 5175.6950
50.5400 5017.6050
50.5600 4744.5400
50.5800 4717.4750
50.6000 4800.5325
50.6200 4985.7100
50.6400 4993.6775
50.6600 4824.4825
50.6800 4812.8200
50.7000 5049.0675
50.7200 5063.7775
50.7400 4883.4575
50.7600 4824.0150
50.7800 4783.7000
50.8000 4888.6475
50.8200 4861.0050
50.8400 4868.2075
50.8600 4924.2950
50.8800 4913.0225
50.9000 4747.2350
50.9200 4693.6075
50.9400 5027.6000
50.9600 4992.8650
50.9800 4948.1075
51.0000 5209.5425
51.0200 5139.5975
51.0400 4924.2450
51.0600 4946.8500
51.0800 5075.6350
51.1000 5057.4925
51.1200 4953.6975
51.1400 5072.7425
51.1600 5334.6625
51.1800 5340.4500
51.2000 5351.3075
51.2200 5399.3025
51.2400 5299.5050
51.2600 5338.4300
51.2800 5458.8200
51.3000 5592.7275
51.3200 5708.6200
51.3400 5682.7650
51.3600 5536.4175
51.3800 5391.1075
51.4000 5202.6400
51.4200 5113.0050
51.4400 5309.9750
51.4600 5340.4000
51.4800 5039.6925
51.5000 4972.0350
51.5200 5066.4900
51.5400 5066.8425
51.5600 4982.2875
51.5800 4959.1125
51.6000 4974.3975
51.6200 4954.5500
51.6400 4970.6225
51.6600 5093.0975
51.6800 5115.4950
51.7000 4865.3375
51.7200 4893.2350
51.7400 5007.9225
51.7600 5076.0600
51.7800 5090.7750
51.8000 5042.0700
51.8200 5058.0925
51.8400 4940.7900
51.8600 4585.0050
51.8800 4732.9875
51.9000 5011.3625
51.9200 4908.4900
51.9400 4870.3300
51.9600 5010.1075
51.9800 5014.9775
52.0000 4862.7675
52.0200 4900.0750
52.0400 4920.9475
52.0600 4954.3550
52.0800 4890.9150
52.1000 4854.5775
52.1200 5114.4000
52.1400 5308.1850
52.1600 5060.4675
52.1800 4837.5375
52.2000 4803.8375
52.2200 4930.5925
52.2400 4978.1825
52.2600 4837.2450
52.2800 4871.3775
52.3000 4903.9150
52.3200 4904.4200
52.3400 4996.3725
52.3600 4915.4475
52.3800 4980.9175
52.4000 5040.4550
52.4200 4996.6525
52.4400 4982.4100
52.4600 4900.2125
52.4800 4908.1925
52.5000 4950.4950
52.5200 5125.9875
52.5400 5002.1575
52.5600 4829.6950
52.5800 4723.5925
52.6000 4642.3700
52.6200 4956.0975
52.6400 5082.4925
52.6600 4878.2900
52.6800 4737.1850
52.7000 4863.8650
52.7200 4991.3875
52.7400 4920.5175
52.7600 4870.7275
52.7800 4921.3575
52.8000 5067.3675
52.8200 5074.3700
52.8400 5037.8150
52.8600 5159.0350
52.8800 5111.4125
52.9000 5063.1675
52.9200 5150.0700
52.9400 5225.5625
52.9600 5375.7050
52.9800 5189.4100
53.0000 5114.0900
53.0200 5266.3825
53.0400 5233.3325
53.0600 5325.7800
53.0800 5546.9350
53.1000 5666.5950
53.1200 5935.6875
53.1400 6136.8925
53.1600 6163.3225
53.1800 6640.7650
53.2000 7041.8825
53.2200 7142.3150
53.2400 7481.4425
53.2600 8090.5075
53.2800 8807.4000
53.3000 9372.5450
53.3200 9533.0400
53.3400 9638.7075
53.3600 10287.8125
53.3800 10341.8925
53.4000 9685.6175
53.4200 9714.6125
53.4400 9823.8850
53.4600 9506.6175
53.4800 9068.6275
53.5000 8614.7900
53.5200 8559.6875
53.5400 8380.3875
53.5600 8037.3100
53.5800 7604.6050
53.6000 7115.9025
53.6200 6856.7250
53.6400 6607.6400
53.6600 6537.5375
53.6800 6133.7425
53.7000 5657.6325
53.7200 5490.8075
53.7400 5479.9100
53.7600 5600.3925
53.7800 5540.7200
53.8000 5450.0800
53.8200 5416.2675
53.8400 5484.3725
53.8600 5419.1875
53.8800 5191.1025
53.9000 5095.4700
53.9200 5104.6125
53.9400 5267.8100
53.9600 5391.7475
53.9800 5282.1800
54.0000 5255.0350
54.0200 5194.3800
54.0400 5167.8325
54.0600 5064.4900
54.0800 4879.4600
54.1000 4777.8575
54.1200 4696.3000
54.1400 4998.4325
54.1600 5106.8800
54.1800 4869.8450
54.2000 5031.8000
54.2200 5114.9325
54.2400 4928.9500
54.2600 4798.8625
54.2800 4893.7750
54.3000 4822.1775
54.3200 4794.1475
54.3400 4940.7775
54.3600 5039.4225
54.3800 5296.6875
54.4000 4958.0350
54.4200 4663.7225
54.4400 4947.7000
54.4600 5112.4550
54.4800 5095.6950
54.5000 4986.4400
54.5200 4862.1750
54.5400 4875.4650
54.5600 4895.6000
54.5800 4967.7000
54.6000 4961.4150
54.6200 4942.5200
54.6400 4970.3100
54.6600 5085.1475
54.6800 5094.1550
54.7000 4958.4300
54.7200 5004.6025
54.7400 4957.3625
54.7600 5001.4625
54.7800 5032.2550
54.8000 4895.2925
54.8200 4833.1350
54.8400 4732.3400
54.8600 4709.0300
54.8800 4897.3850
54.9000 4915.3600
54.9200 4913.7600
54.9400 4793.1500
54.9600 4802.7475
54.9800 5020.7825
55.0000 5084.1525
55.0200 5069.8550
55.0400 5016.9775
55.0600 4961.5150
55.0800 4735.6775
55.1000 4545.2575
55.1200 4529.5350
55.1400 4625.8425
55.1600 4911.0850
55.1800 4880.2550
55.2000 4869.5450
55.2200 5028.3650
55.2400 4991.9900
55.2600 4940.6975
55.2800 4832.9000
55.3000 4951.9550
55.3200 5024.0200
55.3400 4924.6725
55.3600 4862.0075
55.3800 4837.6650
55.4000 4951.3250
55.4200 4788.2300
55.4400 4748.6700
55.4600 4827.4375
55.4800 4738.0050
55.5000 4736.9950
55.5200 4830.9125
55.5400 4966.7800
55.5600 4877.8625
55.5800 4888.9225
55.6000 4957.8775
55.6200 5013.7025
55.6400 4943.7100
55.6600 4757.8725
55.6800 4779.9175
55.7000 5095.2575
55.7200 5210.5825
55.7400 4901.7775
55.7600 4707.9825
55.7800 4928.3975
55.8000 5082.1600
55.8200 4792.9475
55.8400 4862.1125
55.8600 4951.7400
55.8800 4808.6900
55.9000 4964.3450
55.9200 4994.4625
55.9400 4938.0375
55.9600 4860.8825
55.9800 4771.1325
56.0000 4685.9950
56.0200 4735.5050
56.0400 4980.5575
56.0600 4994.6825
56.0800 5136.4900
56.1000 5185.1275
56.1200 4986.9525
56.1400 5059.9225
56.1600 5213.1725
56.1800 5046.9350
56.2000 4892.4025
56.2200 5060.0550
56.2400 5086.2050
56.2600 5118.3950
56.2800 5174.1350
56.3000 5154.7250
56.3200 5081.7200
56.3400 5038.4325
56.3600 5138.0600
56.3800 5149.6250
56.4000 5137.6875
56.4200 5272.6450
56.4400 5307.0825
56.4600 5136.1850
56.4800 5088.0650
56.5000 5234.9650
56.5200 5422.0275
56.5400 5381.5700
56.5600 5330.1125
56.5800 5188.6375
56.6000 4970.5175
56.6200 5089.5850
56.6400 5220.7700
56.6600 5182.8275
56.6800 5281.1325
56.7000 5492.9350
56.7200 5549.6200
56.7400 5372.7125
56.7600 5246.1525
56.7800 5034.0000
56.8000 4960.6275
56.8200 5108.3325
56.8400 5049.1075
56.8600 4792.8350
56.8800 4697.3025
56.9000 4943.9675
56.9200 5078.9750
56.9400 5079.3575
56.9600 5108.5900
56.9800 4998.0800
57.0000 4913.0775
57.0200 4920.3850
57.0400 4798.5900
57.0600 4932.5650
57.0800 5082.3075
57.1000 4940.5125
57.1200 4862.4350
57.1400 4807.5625
57.1600 4690.6400
57.1800 4718.0800
57.2000 4816.7950
57.2200 4884.2325
57.2400 4848.5875
57.2600 4834.4900
57.2800 5014.1050
57.3000 4955.8925
57.3200 4795.7700
57.3400 4973.5950
57.3600 5010.3800
57.3800 4743.8425
57.4000 4807.0575
57.4200 5012.8200
57.4400 5084.1050
57.4600 5057.1775
57.4800 4877.5625
57.5000 4834.2325
57.5200 4917.0525
57.5400 4916.2825
57.5600 4895.8975
57.5800 4912.6925
57.6000 4882.6925
57.6200 4922.0500
57.6400 5004.2300
57.6600 5308.7125
57.6800 5354.6225
57.7000 5167.4350
57.7200 5136.2850
57.7400 5028.7200
57.7600 5029.6150
57.7800 5079.4850
57.8000 4990.0075
57.8200 5001.7875
57.8400 5142.0500
57.8600 5238.5825
57.8800 5244.8775
57.9000 5373.6975
57.9200 5858.6850
57.9400 5879.2650
57.9600 5878.9400
57.9800 6129.1025
58.0000 6133.4600
58.0200 6179.7375
58.0400 6449.3200
58.0600 6581.9400
58.0800 6889.2825
58.1000 7372.2875
58.1200 7682.3900
58.1400 8073.5500
58.1600 8499.5575
58.1800 8855.8700
58.2000 9305.0400
58.2200 9701.0075
58.2400 9445.2200
58.2600 9188.3175
58.2800 9364.3200
58.3000 9318.3850
58.3200 8891.8825
58.3400 8476.8500
58.3600 8299.6250
58.3800 8169.2700
58.4000 8037.0625
58.4200 7839.1700
58.4400 7472.0075
58.4600 7038.1775
58.4800 6596.8875
58.5000 6319.7750
58.5200 6190.7975
58.5400 5972.6425
58.5600 5685.5775
58.5800 5541.4200
58.6000 5541.9150
58.6200 5351.1375
58.6400 5162.6850
58.6600 5124.2600
58.6800 5066.5425
58.7000 5138.6700
58.7200 5026.3975
58.7400 4905.0875
58.7600 4996.2625
58.7800 5118.0150
58.8000 5051.9000
58.8200 4878.8600
58.8400 4909.0675
58.8600 4856.8675
58.8800 4897.8450
58.9000 4809.2700
58.9200 4794.5875
58.9400 5101.5800
58.9600 5013.8725
58.9800 4985.6400
59.0000 5124.7575
59.0200 5154.8325
59.0400 5030.9150
59.0600 5010.3875
59.0800 4917.5150
59.1000 4767.7525
59.1200 4850.1200
59.1400 4917.5075
59.1600 4958.0925
59.1800 4924.7600
59.2000 4789.9875
59.2200 4818.7025
59.2400 5030.1825
59.2600 4994.3400
59.2800 5048.0425
59.3000 5102.7950
59.3200 4839.2850
59.3400 4801.7850
59.3600 5064.4600
59.3800 5094.3500
59.4000 4843.7575
59.4200 4721.1300
59.4400 4834.6350
59.4600 5017.9675
59.4800 4892.8225
59.5000 4797.4250
59.5200 4980.1675
59.5400 5011.9700
59.5600 4987.6775
59.5800 4923.9425
59.6000 4917.6050
59.6200 4932.6300
59.6400 4946.7125
59.6600 5075.9350
59.6800 5069.8400
59.7000 4911.2725
59.7200 4829.2250
59.7400 4951.6325
59.7600 5062.4425
59.7800 5032.9850
59.8000 5016.7825
59.8200 4915.1575
59.8400 4804.1075
59.8600 4973.2100
59.8800 5023.3775
59.9000 4984.3750
59.9200 4897.8025
59.9400 4796.5850
59.9600 4748.6150
59.9800 4759.8325
60.0000 4756.8350
60.0200 4890.7800
60.0400 5158.7925
60.0600 4988.9075
60.0800 4914.1650
60.1000 4978.4200
60.1200 4891.2075
60.1400 4832.9900
60.1600 4875.9150
60.1800 4890.9800
60.2000 4900.8000
60.2200 4962.5575
60.2400 4941.3250
60.2600 4789.9550
60.2800 4784.9300
60.3000 4900.0000
60.3200 4980.2500
60.3400 4779.5750
60.3600 4487.2150
60.3800 4551.1375
60.4000 4785.3800
60.4200 4891.0975
60.4400 4761.3075
60.4600 4789.0325
60.4800 4878.8825
60.5000 4887.8975
60.5200 4920.8900
60.5400 4844.7575
60.5600 4893.3675
60.5800 4944.8700
60.6000 4989.0300
60.6200 5091.5525
60.6400 5062.2175
60.6600 4957.2025
60.6800 4972.1350
60.7000 4855.5050
60.7200 4840.0450
60.7400 5075.6775
60.7600 5048.9825
60.7800 4983.4475
60.8000 4826.9625
60.8200 4666.6675
60.8400 4915.8375
60.8600 5209.0125
60.8800 5013.3875
60.9000 4897.4725
60.9200 4970.2100
60.9400 4874.3200
60.9600 4939.0275
60.9800 5147.1350
61.0000 5199.4350
61.0200 5116.1000
61.0400 5104.5625
61.0600 5150.2275
61.0800 5044.1900
61.1000 4941.8925
61.1200 5110.3750
61.1400 5271.0025
61.1600 5350.9075
61.1800 5357.5375
61.2000 5397.1400
61.2200 5487.4425
61.2400 5529.7925
61.2600 5684.8150
61.2800 5960.6125
61.3000 6298.1725
61.3200 6859.4750
61.3400 7368.3800
61.3600 7897.1550
61.3800 8663.3675
61.4000 9751.5150
61.4200 10872.2825
61.4400 11718.5225
61.4600 11858.5375
61.4800 11841.1200
61.5000 11964.8250
61.5200 11753.0725
61.5400 11573.6150
61.5600 11331.3700
61.5800 10824.1375
61.6000 10496.2375
61.6200 10465.8550
61.6400 9977.4150
61.6600 9330.1950
61.6800 8833.7175
61.7000 8355.4200
61.7200 7972.5500
61.7400 7698.5975
61.7600 7135.2300
61.7800 6594.6025
61.8000 6364.6700
61.8200 6072.8825
61.8400 5755.9775
61.8600 5409.9625
61.8800 5461.5250
61.9000 5598.8150
61.9200 5394.1125
61.9400 5291.9050
61.9600 5130.8325
61.9800 5009.0500
62.0000 5197.8050
62.0200 5240.3500
62.0400 5031.6525
62.0600 4798.3150
62.0800 4776.3250
62.1000 4972.3425
62.1200 5036.9550
62.1400 5012.6825
62.1600 5118.0050
62.1800 5132.2375
62.2000 4918.8175
62.2200 4969.3600
62.2400 5014.7025
62.2600 5014.4075
62.2800 4904.8775
62.3000 4886.4250
62.3200 5133.9525
62.3400 4997.3900
62.3600 4841.9150
62.3800 4837.1875
62.4000 4952.0050
62.4200 4935.3000
62.4400 4905.8675
62.4600 4978.5975
62.4800 4882.4450
62.5000 4879.9925
62.5200 4844.4950
62.5400 4944.4800
62.5600 4964.2300
62.5800 4901.4150
62.6000 4885.8850
62.6200 4884.8875
62.6400 5131.4400
62.6600 4966.0750
62.6800 4738.6125
62.7000 4850.6550
62.7200 4989.0150
62.7400 4990.2150
62.7600 4891.5350
62.7800 4841.0025
62.8000 4681.4650
62.8200 4765.6475
62.8400 4793.2125
62.8600 4739.1850
62.8800 4926.3525
62.9000 5021.0375
62.9200 4961.3400
62.9400 4862.0200
62.9600 4896.8650
62.9800 4932.9200
63.0000 4802.4350
63.0200 4746.5975
63.0400 4732.3575
63.0600 4742.7875
63.0800 4715.1200
63.1000 4654.6600
63.1200 4806.2225
63.1400 4878.3850
63.1600 4816.3800
63.1800 5007.6825
63.2000 5072.6950
63.2200 4861.1250
63.2400 4800.2900
63.2600 4901.4600
63.2800 4805.2550
63.3000 4658.7750
63.3200 4768.1450
63.3400 4909.3725
63.3600 4890.3250
63.3800 4829.3925
63.4000 4807.7325
63.4200 4783.4850
63.4400 4855.3050
63.4600 4853.0225
63.4800 4774.6925
63.5000 4758.3325
63.5200 4737.1125
63.5400 4665.7350
63.5600 4693.0725
63.5800 4860.0600
63.6000 4877.8275
63.6200 4778.6125
63.6400 4873.1400
63.6600 4919.4750
63.6800 4934.9400
63.7000 4863.7600
63.7200 4886.5775
63.7400 5134.9650
63.7600 5106.2025
63.7800 4932.0150
63.8000 4849.6700
63.8200 4892.8300
63.8400 4924.4975
63.8600 4865.9950
63.8800 4799.3250
63.9000 4864.4525
63.9200 4886.0500
63.9400 4795.4050
63.9600 4783.5050
63.9800 4868.2275
64.0000 5001.2200
64.0200 5028.5525
64.0400 4940.4350
64.0600 4883.3325
64.0800 4789.7100
64.1000 4883.0125
64.1200 4900.8400
64.1400 4890.4850
64.1600 4846.1825
64.1800 4819.7750
64.2000 5094.6075
64.2200 4935.3825
64.2400 4683.8900
64.2600 4687.0325
64.2800 4935.0850
64.3000 5114.9675
64.3200 5016.0975
64.3400 5008.7150
64.3600 4965.3225
64.3800 4916.8600
64.4000 4792.8225
64.4200 4734.8950
64.4400 4740.2925
64.4600 4768.6425
64.4800 4700.6900
64.5000 4720.4625
64.5200 4892.0675
64.5400 4912.6000
64.5600 5023.3750
64.5800 4749.3400
64.6000 4605.1400
64.6200 4757.0925
64.6400 4652.8150
64.6600 4608.5425
64.6800 4608.1225
64.7000 4796.5350
64.7200 4949.1475
64.7400 4865.3825
64.7600 4859.4100
64.7800 4793.1250
64.8000 4956.7550
64.8200 5139.9125
64.8400 4925.3075
64.8600 4868.8850
64.8800 4868.7150
64.9000 4971.3800
64.9200 4897.7325
64.9400 4786.5125
64.9600 4959.9325
64.9800 4943.8800
65.0000 4840.7425
65.0200 4868.2950
65.0400 4929.2825
65.0600 4839.0775
65.0800 4899.9775
65.1000 5075.9525
65.1200 5138.3400
65.1400 5093.7850
65.1600 5003.5600
65.1800 5116.2825
65.2000 5233.0875
65.2200 5332.2550
65.2400 5446.2050
65.2600 5213.7075
65.2800 5124.9825
65.3000 5339.9050
65.3200 5575.5425
65.3400 5523.1475
65.3600 5466.4950
65.3800 5896.7050
65.4000 6058.7175
65.4200 5924.4750
65.4400 6235.0350
65.4600 6429.8800
65.4800 6234.6925
65.5000 6420.9725
65.5200 6997.6475
65.5400 7454.9000
65.5600 7703.2875
65.5800 7890.3950
65.6000 8431.3650
65.6200 9215.7450
65.6400 9661.9825
65.6600 9792.5150
65.6800 9851.1375
65.7000 9947.9775
65.7200 10366.1075
65.7400 10527.5425
65.7600 9987.1850
65.7800 9723.9100
65.8000 9894.6150
65.8200 9603.9075
65.8400 9167.6975
65.8600 9079.0175
65.8800 9152.7200
65.9000 9060.8900
65.9200 8757.1450
65.9400 8301.2625
65.9600 7779.2900
65.9800 7717.9550
66.0000 7676.7475
66.0200 7482.3875
66.0400 7631.3500
66.0600 7718.1175
66.0800 7935.6075
66.1000 8433.7325
66.1200 8814.5150
66.1400 9165.8650
66.1600 9878.4300
66.1800 10353.6700
66.2000 10627.6725
66.2200 10865.6600
66.2400 10668.2475
66.2600 10460.6325
66.2800 10316.9025
66.3000 10107.8575
66.3200 10078.1150
66.3400 9976.3700
66.3600 9868.7675
66.3800 10033.9250
66.4000 10041.7550
66.4200 9380.7925
66.4400 8567.1375
66.4600 8200.0125
66.4800 7860.4750
66.5000 7659.4300
66.5200 7378.7875
66.5400 6960.7425
66.5600 6389.3375
66.5800 6044.2900
66.6000 6030.3175
66.6200 5896.9650
66.6400 5850.7625
66.6600 5631.2975
66.6800 5407.9475
66.7000 5199.3925
66.7200 5156.2575
66.7400 5121.8875
66.7600 4979.3650
66.7800 5079.3825
66.8000 4926.4800
66.8200 4909.2725
66.8400 5148.4700
66.8600 5130.0675
66.8800 4869.9275
66.9000 4888.4625
66.9200 4992.3000
66.9400 4859.3650
66.9600 4996.9650
66.9800 5157.4875
67.0000 4962.1050
67.0200 4975.2350
67.0400 5010.6325
67.0600 4878.0825
67.0800 5029.3375
67.1000 5034.2075
67.1200 4693.7925
67.1400 4740.9350
67.1600 4809.5175
67.1800 4771.1625
67.2000 4889.5350
67.2200 5004.0950
67.2400 5145.3275
67.2600 4909.3475
67.2800 5050.7000
67.3000 5231.8825
67.3200 5071.0675
67.3400 5075.0000
67.3600 5101.4225
67.3800 5155.8375
67.4000 5020.2875
67.4200 5038.0975
67.4400 5223.0200
67.4600 5289.2100
67.4800 5360.7900
67.5000 5302.8950
67.5200 5260.8200
67.5400 5472.2550
67.5600 5708.9475
67.5800 5792.1725
67.6000 5928.2150
67.6200 6090.3175
67.6400 6235.0900
67.6600 6515.3075
67.6800 6577.0775
67.7000 6660.4850
67.7200 6976.1600
67.7400 7218.6000
67.7600 7552.1725
67.7800 7833.1925
67.8000 7984.8350
67.8200 8288.5750
67.8400 8785.2350
67.8600 9072.2075
67.8800 9562.6175
67.9000 10161.6700
67.9200 10262.7550
67.9400 10528.5725
67.9600 11560.2800
67.9800 12505.9825
68.0000 12762.7850
68.0200 12405.8675
68.0400 12024.8275
68.0600 11685.8350
68.0800 11240.9975
68.1000 11097.8925
68.1200 10585.0150
68.1400 10013.9850
68.1600 9938.3975
68.1800 9748.9475
68.2000 9347.0550
68.2200 9091.8725
68.2400 8719.6125
68.2600 8208.9800
68.2800 7757.6500
68.3000 7232.6675
68.3200 6818.8250
68.3400 6548.2500
68.3600 6205.3050
68.3800 5729.6025
68.4000 5631.4100
68.4200 5578.7750
68.4400 5218.4225
68.4600 5311.2225
68.4800 5379.8675
68.5000 5183.2150
68.5200 5020.8800
68.5400 5150.0000
68.5600 5247.1275
68.5800 5049.5700
68.6000 4990.5500
68.6200 5043.0300
68.6400 5008.7300
68.6600 4831.3275
68.6800 4761.8000
68.7000 4678.0925
68.7200 4782.7850
68.7400 4822.7625
68.7600 5088.0925
68.7800 5299.7825
68.8000 4887.0675
68.8200 4707.2025
68.8400 4747.1025
68.8600 4884.3075
68.8800 4957.0075
68.9000 4931.7425
68.9200 4817.6925
68.9400 4613.7625
68.9600 4627.9425
68.9800 4854.4600
69.0000 4960.6075
69.0200 4809.8025
69.0400 4581.7250
69.0600 4765.5050
69.0800 4763.2325
69.1000 4785.3225
69.1200 4816.2725
69.1400 4682.5475
69.1600 4711.4925
69.1800 4732.5400
69.2000 4560.6275
69.2200 4443.2725
69.2400 4522.3150
69.2600 4424.1125
69.2800 4547.0250
69.3000 4603.5450
69.3200 4474.1750
69.3400 4558.2875
69.3600 4647.0825
69.3800 4818.8250
69.4000 4803.1925
69.4200 4839.3900
69.4400 4778.3875
69.4600 4583.6500
69.4800 4678.7075
69.5000 4626.9700
69.5200 4601.2275
69.5400 4623.4875
69.5600 4703.9625
69.5800 4808.3325
69.6000 4674.6325
69.6200 4783.4625
69.6400 4602.9775
69.6600 4542.9150
69.6800 4701.9025
69.7000 4701.8225
69.7200 4642.6775
69.7400 4745.2700
69.7600 4990.7275
69.7800 4916.6000
69.8000 4630.4150
69.8200 4554.6950
69.8400 4693.7175
69.8600 4747.1525
69.8800 4646.0600
69.9000 4397.4950
69.9200 4468.4750
69.9400 4562.6025
69.9600 4583.7600
69.9800 4663.9675
70.0000 4707.6075
70.0200 4700.7075
70.0400 4600.3900
70.0600 4564.9950
70.0800 4527.3150
70.1000 4445.9675
70.1200 4538.1700
70.1400 4567.8725
70.1600 4671.0500
70.1800 4777.6250
70.2000 4452.8775
70.2200 4287.9950
70.2400 4612.5600
70.2600 4722.8450
70.2800 4481.0250
70.3000 4448.6225
70.3200 4548.4950
70.3400 4439.7250
70.3600 4539.2425
70.3800 4503.3950
70.4000 4410.1375
70.4200 4365.1825
70.4400 4521.5925
70.4600 4649.2100
70.4800 4550.5850
70.5000 4585.0100
70.5200 4508.2375
70.5400 4570.2125
70.5600 4567.5350
70.5800 4428.7975
70.6000 4494.7250
70.6200 4505.0600
70.6400 4581.6200
70.6600 4570.6200
70.6800 4638.8325
70.7000 4797.5000
70.7200 4638.4675
70.7400 4444.1100
70.7600 4760.4525
70.7800 4744.0925
70.8000 4771.5325
70.8200 4854.6650
70.8400 4654.5550
70.8600 4448.5675
70.8800 4438.2950
70.9000 4687.5700
70.9200 4756.8375
70.9400 4522.9975
70.9600 4386.8800
70.9800 4210.9075
71.0000 4303.7875
71.0200 4308.4200
71.0400 4153.2800
71.0600 4297.8425
71.0800 4453.8250
71.1000 4532.6850
71.1200 4584.6200
71.1400 4586.8550
71.1600 4549.6225
71.1800 4587.6450
71.2000 4724.9475
71.2200 4526.3050
71.2400 4376.7825
71.2600 4591.9000
71.2800 4783.0050
71.3000 4733.1025
71.3200 4574.7125
71.3400 4498.6475
71.3600 4564.3525
71.3800 4626.3650
71.4000 4618.7775
71.4200 4584.0575
71.4400 4629.8200
71.4600 4684.7225
71.4800 4594.3825
71.5000 4505.5300
71.5200 4481.9250
71.5400 4450.6325
71.5600 4613.7675
71.5800 4687.9900
71.6000 4659.7650
71.6200 4754.6150
71.6400 4596.6575
71.6600 4475.9125
71.6800 4612.5950
71.7000 4623.0875
71.7200 4575.0000
71.7400 4481.8050
71.7600 4652.2575
71.7800 4885.4250
71.8000 4500.8525
71.8200 4396.7100
71.8400 4612.0700
71.8600 4656.8175
71.8800 4462.7575
71.9000 4362.9175
71.9200 4393.2025
71.9400 4627.1125
71.9600 4892.0250
71.9800 4798.5775
72.0000 4683.3325
72.0200 4648.6800
72.0400 4634.9075
72.0600 4815.1600
72.0800 4720.0400
72.1000 4768.5825
72.1200 4989.4050
72.1400 5179.2275
72.1600 5291.5350
72.1800 5228.7000
72.2000 5319.4300
72.2200 5546.2450
72.2400 5763.0000
72.2600 6224.2900
72.2800 6380.1150
72.3000 6646.4900
72.3200 6871.6675
72.3400 7015.1175
72.3600 6918.0450
72.3800 6556.1475
72.4000 6465.1875
72.4200 6242.3825
72.4400 6152.0300
72.4600 6323.9050
72.4800 6274.2925
72.5000 6101.0925
72.5200 6172.5850
72.5400 6328.8775
72.5600 6158.1800
72.5800 5633.1825
72.6000 5418.6800
72.6200 5482.0900
72.6400 5594.2925
72.6600 5483.0200
72.6800 5334.4925
72.7000 5293.1325
72.7200 5095.7175
72.7400 5005.4450
72.7600 4923.4425
72.7800 4756.7050
72.8000 4676.4125
72.8200 4742.9950
72.8400 4939.3425
72.8600 4824.4025
72.8800 4763.0600
72.9000 4675.6525
72.9200 4749.9775
72.9400 4594.4775
72.9600 4474.2450
72.9800 4515.3525
73.0000 4494.2725
73.0200 4633.8800
73.0400 4707.6900
73.0600 4476.1000
73.0800 4536.8450
73.1000 4653.1925
73.1200 4505.9775
73.1400 4385.7825
73.1600 4294.5500
73.1800 4538.6750
73.2000 4510.3200
73.2200 4378.1700
73.2400 4328.5050
73.2600 4455.1000
73.2800 4632.7800
73.3000 4667.8000
73.3200 4533.9800
73.3400 4676.1100
73.3600 4626.7200
73.3800 4682.8350
73.4000 4736.5650
73.4200 4573.1225
73.4400 4564.5275
73.4600 4764.5775
73.4800 4780.1525
73.5000 4394.3000
73.5200 4181.2275
73.5400 4336.9325
73.5600 4276.5075
73.5800 4267.0350
73.6000 4290.4900
73.6200 4358.8275
73.6400 4319.2000
73.6600 4261.4200
73.6800 4757.1800
73.7000 4645.3675
73.7200 4450.4050
73.7400 4532.8925
73.7600 4429.7275
73.7800 4307.8325
73.8000 4510.1500
73.8200 4551.9275
73.8400 4383.7775
73.8600 4232.0775
73.8800 4283.8575
73.9000 4331.0775
73.9200 4383.2875
73.9400 4649.9925
73.9600 4613.5125
73.9800 4426.3800
74.0000 4321.8500
74.0200 4211.8800
74.0400 4129.4050
74.0600 4257.4950
74.0800 4304.3475
74.1000 4213.9725
74.1200 4452.6550
74.1400 4560.2400
74.1600 4415.6825
74.1800 4350.0000
74.2000 4435.6950
74.2200 4370.7700
74.2400 4420.9825
74.2600 4397.4375
74.2800 4355.3725
74.3000 4315.3200
74.3200 4323.9525
74.3400 4460.1375
74.3600 4250.1475
74.3800 4251.0175
74.4000 4279.3575
74.4200 4287.8125
74.4400 4459.7050
74.4600 4584.9500
74.4800 4559.6025
74.5000 4630.8725
74.5200 4710.4475
74.5400 4822.6925
74.5600 4684.8950
74.5800 4621.3850
74.6000 4500.2225
74.6200 4523.0000
74.6400 4711.2175
74.6600 4325.2825
74.6800 4448.9725
74.7000 4712.6675
74.7200 4810.1250
74.7400 5049.5350
74.7600 5174.7575
74.7800 5177.8550
74.8000 5323.0475
74.8200 5410.9750
74.8400 5861.5175
74.8600 6196.0975
74.8800 6156.4875
74.9000 6130.3550
74.9200 6301.4425
74.9400 6361.2775
74.9600 6195.4875
74.9800 6381.7575
75.0000 6566.4100
75.0200 6381.4650
75.0400 6219.6400
75.0600 6657.0650
75.0800 7058.0150
75.1000 7297.0500
75.1200 7408.3225
75.1400 7613.9825
75.1600 7886.3425
75.1800 7613.1275
75.2000 7221.6050
75.2200 7038.6000
75.2400 6799.0925
75.2600 6700.0000
75.2800 6465.2275
75.3000 6484.2650
75.3200 6482.8125
75.3400 6326.7250
75.3600 6434.9050
75.3800 6280.9400
75.4000 6026.2400
75.4200 6110.1175
75.4400 5812.0025
75.4600 5475.6700
75.4800 5681.7700
75.5000 5551.5850
75.5200 5029.8775
75.5400 5005.4950
75.5600 5026.7950
75.5800 4801.9525
75.6000 5087.7625
75.6200 4977.6100
75.6400 4592.0800
75.6600 4866.7175
75.6800 4748.8675
75.7000 4727.7475
75.7200 4493.0875
75.7400 4369.7250
75.7600 4534.6125
75.7800 4636.8600
75.8000 4598.6125
75.8200 4529.2825
75.8400 4433.9825
75.8600 4422.8950
75.8800 4324.4875
75.9000 4372.4700
75.9200 4445.3575
75.9400 4349.2175
75.9600 4420.7025
75.9800 4509.5150
76.0000 4501.9700
76.0200 4243.8975
76.0400 4254.4375
76.0600 4314.1050
76.0800 4489.9600
76.1000 4468.3850
76.1200 4390.2825
76.1400 4508.1900
76.1600 4421.7725
76.1800 4288.7275
76.2000 4089.9775
76.2200 4220.0250
76.2400 4285.0725
76.2600 4298.2800
76.2800 4366.5825
76.3000 4187.6250
76.3200 4175.8500
76.3400 4231.6925
76.3600 4171.5325
76.3800 4229.4075
76.4000 4442.2925
76.4200 4311.5975
76.4400 4389.1950
76.4600 4258.7875
76.4800 4427.5800
76.5000 4251.1475
76.5200 4209.8225
76.5400 4200.4450
76.5600 4271.7400
76.5800 4467.6000
76.6000 4562.8525
76.6200 4338.6525
76.6400 4342.2000
76.6600 4549.0550
76.6800 4521.8875
76.7000 4388.4750
76.7200 4433.0725
76.7400 4531.9925
76.7600 4558.3325
76.7800 4588.0775
76.8000 4463.0625
76.8200 4134.2275
76.8400 4323.1925
76.8600 4411.8225
76.8800 4382.0775
76.9000 4249.4400
76.9200 4391.4900
76.9400 4346.8825
76.9600 4485.8200
76.9800 4324.3600
77.0000 4263.3550
77.0200 4341.1050
77.0400 4336.5950
77.0600 4252.7650
77.0800 4303.3225
77.1000 4170.5275
77.1200 4319.5575
77.1400 4297.3175
77.1600 4161.6100
77.1800 4100.7975
77.2000 4200.6650
77.2200 4344.6975
77.2400 4310.5450
77.2600 4331.9000
77.2800 4337.8475
77.3000 4394.1450
77.3200 4374.0625
77.3400 4400.9725
77.3600 4148.4175
77.3800 4239.1550
77.4000 4332.7600
77.4200 4525.0300
77.4400 4506.0250
77.4600 4377.0425
77.4800 4274.2625
77.5000 4372.6550
77.5200 4416.6675
77.5400 4177.0850
77.5600 4190.0400
77.5800 4477.2925
77.6000 4566.6675
77.6200 4455.7175
77.6400 4478.3575
77.6600 4506.1750
77.6800 4440.3600
77.7000 4466.1450
77.7200 4142.8900
77.7400 4297.5825
77.7600 4385.4675
77.7800 4426.7725
77.8000 4218.0800
77.8200 4359.2250
77.8400 4240.4775
77.8600 4249.7175
77.8800 4293.6950
77.9000 4212.6850
77.9200 4320.6575
77.9400 4260.4625
77.9600 4275.0200
77.9800 4254.1200
78.0000 4385.7150
78.0200 4088.5850
78.0400 4006.3675
78.0600 4192.4675
78.0800 4105.4725
78.1000 4177.8250
78.1200 4109.6625
78.1400 4024.6025
78.1600 3983.1150
78.1800 4031.7900
78.2000 4182.6200
78.2200 4408.2950
78.2400 4441.3650
78.2600 4490.3125
78.2800 4508.3325
78.3000 4280.0425
78.3200 4284.4925
78.3400 4149.5350
78.3600 4290.7150
78.3800 4375.4500
78.4000 4211.4075
78.4200 4330.4000
78.4400 4134.5875
78.4600 4326.4325
78.4800 4350.8350
78.5000 4218.2450
78.5200 4279.3200
78.5400 4167.4400
78.5600 4317.2850
78.5800 4227.4600
78.6000 4170.4925
78.6200 4185.9425
78.6400 4333.1375
78.6600 4117.5725
78.6800 4331.5075
78.7000 4281.2975
78.7200 4164.2500
78.7400 4283.7125
78.7600 4279.7675
78.7800 4570.6175
78.8000 4561.2500
78.8200 4513.9000
78.8400 4372.1975
78.8600 4287.9175
78.8800 4333.4375
78.9000 4148.5525
78.9200 4494.8850
78.9400 4510.7025
78.9600 4548.4725
78.9800 4449.3225
79.0000 4136.1200
79.0200 3823.2700
79.0400 4078.5350
79.0600 4016.2475
79.0800 4040.4525
79.1000 4313.7950
79.1200 4442.3325
79.1400 4458.3325
79.1600 4412.3725
79.1800 4557.7050
79.2000 4507.9325
79.2200 4259.5650
79.2400 4259.2800
79.2600 4433.2025
79.2800 4270.4975
79.3000 4480.7500
79.3200 4543.3925
79.3400 4356.5200
79.3600 3924.5175
79.3800 4169.3775
79.4000 4543.3300
79.4200 4285.0200
79.4400 4279.6575
79.4600 4153.8500
79.4800 4003.6450
79.5000 4334.2875
79.5200 4425.0000
79.5400 4291.7250
79.5600 4218.3200
79.5800 4421.8975
79.6000 4515.0750
79.6200 4411.3700
79.6400 4517.1175
79.6600 4409.4200
79.6800 4502.2875
79.7000 4251.7450
79.7200 4552.3575
79.7400 4487.2300
79.7600 4463.4400
79.7800 4439.7675
79.8000 4177.6000
79.8200 4103.1975
79.8400 4356.1150
79.8600 4389.6875
79.8800 4383.3325
79.9000 4396.8425
79.9200 4386.4800
79.9400 4335.9775
79.9600 4446.8600
79.9800 4420.8000
80.0000 4252.3925
